time_s,acc_x,acc_y,acc_z
0.00000,52.94286,-785.77143,-618.02857
0.00781,52.94286,-785.77143,-618.02857
0.01562,52.94286,-785.77143,-618.02857
0.02344,52.94286,-785.77143,-618.02857
0.03125,52.94286,-785.77143,-620.97143
0.03906,52.94286,-785.77143,-618.02857
0.04688,52.94286,-785.77143,-618.02857
0.05469,52.94286,-785.77143,-618.02857
0.06250,52.94286,-785.77143,-618.02857
0.07031,52.94286,-785.77143,-618.02857
0.07812,52.94286,-785.77143,-618.02857
0.08594,52.94286,-785.77143,-618.02857
0.09375,52.94286,-785.77143,-618.02857
0.10156,52.94286,-785.77143,-618.02857
0.10938,52.94286,-785.77143,-620.97143
0.11719,55.88571,-785.77143,-620.97143
0.12500,55.88571,-785.77143,-620.97143
0.13281,52.94286,-785.77143,-620.97143
0.14062,52.94286,-785.77143,-620.97143
0.14844,52.94286,-785.77143,-618.02857
0.15625,52.94286,-785.77143,-618.02857
0.16406,52.94286,-785.77143,-618.02857
0.17188,52.94286,-785.77143,-618.02857
0.17969,52.94286,-785.77143,-618.02857
0.18750,52.94286,-785.77143,-618.02857
0.19531,52.94286,-785.77143,-618.02857
0.20312,52.94286,-785.77143,-620.97143
0.21094,52.94286,-785.77143,-620.97143
0.21875,55.88571,-785.77143,-620.97143
0.22656,55.88571,-785.77143,-620.97143
0.23438,55.88571,-785.77143,-618.02857
0.24219,55.88571,-785.77143,-618.02857
0.25000,55.88571,-785.77143,-618.02857
0.25781,52.94286,-785.77143,-618.02857
0.26562,52.94286,-785.77143,-615.08571
0.27344,52.94286,-788.71429,-618.02857
0.28125,52.94286,-788.71429,-615.08571
0.28906,50.00000,-788.71429,-615.08571
0.29688,50.00000,-788.71429,-618.02857
0.30469,52.94286,-788.71429,-618.02857
0.31250,52.94286,-785.77143,-620.97143
0.32031,55.88571,-785.77143,-620.97143
0.32812,55.88571,-782.82857,-623.91429
0.33594,55.88571,-782.82857,-623.91429
0.34375,55.88571,-782.82857,-623.91429
0.35156,55.88571,-782.82857,-623.91429
0.35938,55.88571,-782.82857,-620.97143
0.36719,52.94286,-785.77143,-618.02857
0.37500,52.94286,-785.77143,-618.02857
0.38281,50.00000,-788.71429,-615.08571
0.39062,50.00000,-788.71429,-612.14286
0.39844,52.94286,-788.71429,-615.08571
0.40625,52.94286,-788.71429,-615.08571
0.41406,52.94286,-788.71429,-615.08571
0.42188,52.94286,-788.71429,-618.02857
0.42969,52.94286,-785.77143,-618.02857
0.43750,55.88571,-785.77143,-618.02857
0.44531,52.94286,-785.77143,-620.97143
0.45312,52.94286,-782.82857,-620.97143
0.46094,52.94286,-782.82857,-623.91429
0.46875,52.94286,-782.82857,-620.97143
0.47656,52.94286,-785.77143,-620.97143
0.48438,52.94286,-785.77143,-618.02857
0.49219,52.94286,-785.77143,-618.02857
0.50000,52.94286,-788.71429,-618.02857
0.50781,55.88571,-785.77143,-618.02857
0.51562,55.88571,-785.77143,-618.02857
0.52344,55.88571,-785.77143,-618.02857
0.53125,55.88571,-785.77143,-618.02857
0.53906,52.94286,-785.77143,-618.02857
0.54688,52.94286,-785.77143,-618.02857
0.55469,52.94286,-785.77143,-618.02857
0.56250,52.94286,-785.77143,-618.02857
0.57031,52.94286,-785.77143,-618.02857
0.57812,52.94286,-785.77143,-618.02857
0.58594,52.94286,-785.77143,-618.02857
0.59375,52.94286,-785.77143,-618.02857
0.60156,52.94286,-785.77143,-620.97143
0.60938,52.94286,-785.77143,-620.97143
0.61719,52.94286,-785.77143,-620.97143
0.62500,52.94286,-785.77143,-620.97143
0.63281,52.94286,-785.77143,-620.97143
0.64062,52.94286,-785.77143,-620.97143
0.64844,52.94286,-785.77143,-620.97143
0.65625,52.94286,-785.77143,-620.97143
0.66406,52.94286,-785.77143,-618.02857
0.67188,52.94286,-785.77143,-618.02857
0.67969,52.94286,-785.77143,-618.02857
0.68750,52.94286,-785.77143,-618.02857
0.69531,52.94286,-785.77143,-618.02857
0.70312,52.94286,-788.71429,-618.02857
0.71094,52.94286,-785.77143,-618.02857
0.71875,52.94286,-785.77143,-618.02857
0.72656,52.94286,-785.77143,-618.02857
0.73438,52.94286,-785.77143,-618.02857
0.74219,52.94286,-785.77143,-618.02857
0.75000,55.88571,-785.77143,-618.02857
0.75781,52.94286,-785.77143,-618.02857
0.76562,52.94286,-785.77143,-618.02857
0.77344,52.94286,-785.77143,-620.97143
0.78125,52.94286,-785.77143,-620.97143
0.78906,52.94286,-785.77143,-618.02857
0.79688,52.94286,-785.77143,-618.02857
0.80469,52.94286,-785.77143,-618.02857
0.81250,52.94286,-785.77143,-618.02857
0.82031,52.94286,-785.77143,-618.02857
0.82812,52.94286,-785.77143,-620.97143
0.83594,52.94286,-785.77143,-620.97143
0.84375,52.94286,-785.77143,-620.97143
0.85156,50.00000,-785.77143,-618.02857
0.85938,52.94286,-785.77143,-618.02857
0.86719,52.94286,-785.77143,-618.02857
0.87500,52.94286,-785.77143,-618.02857
0.88281,55.88571,-785.77143,-620.97143
0.89062,55.88571,-785.77143,-620.97143
0.89844,55.88571,-785.77143,-620.97143
0.90625,52.94286,-785.77143,-618.02857
0.91406,52.94286,-785.77143,-618.02857
0.92188,52.94286,-785.77143,-618.02857
0.92969,52.94286,-785.77143,-618.02857
0.93750,52.94286,-785.77143,-618.02857
0.94531,52.94286,-785.77143,-618.02857
0.95312,52.94286,-785.77143,-618.02857
0.96094,52.94286,-785.77143,-618.02857
0.96875,52.94286,-785.77143,-618.02857
0.97656,52.94286,-782.82857,-618.02857
0.98438,52.94286,-785.77143,-620.97143
0.99219,55.88571,-785.77143,-620.97143
1.00000,55.88571,-785.77143,-618.02857
1.00781,55.88571,-785.77143,-620.97143
1.01562,55.88571,-785.77143,-620.97143
1.02344,55.88571,-785.77143,-618.02857
1.03125,52.94286,-785.77143,-618.02857
1.03906,52.94286,-788.71429,-615.08571
1.04688,50.00000,-788.71429,-618.02857
1.05469,50.00000,-788.71429,-615.08571
1.06250,50.00000,-788.71429,-615.08571
1.07031,50.00000,-788.71429,-618.02857
1.07812,52.94286,-785.77143,-620.97143
1.08594,55.88571,-782.82857,-620.97143
1.09375,55.88571,-782.82857,-623.91429
1.10156,55.88571,-779.88571,-623.91429
1.10938,55.88571,-779.88571,-623.91429
1.11719,55.88571,-779.88571,-623.91429
1.12500,55.88571,-782.82857,-623.91429
1.13281,52.94286,-782.82857,-620.97143
1.14062,52.94286,-785.77143,-620.97143
1.14844,52.94286,-785.77143,-618.02857
1.15625,52.94286,-788.71429,-615.08571
1.16406,52.94286,-788.71429,-612.14286
1.17188,52.94286,-788.71429,-615.08571
1.17969,52.94286,-788.71429,-615.08571
1.18750,52.94286,-788.71429,-615.08571
1.19531,52.94286,-785.77143,-618.02857
1.20312,52.94286,-785.77143,-618.02857
1.21094,52.94286,-782.82857,-620.97143
1.21875,55.88571,-782.82857,-620.97143
1.22656,52.94286,-782.82857,-620.97143
1.23438,52.94286,-782.82857,-620.97143
1.24219,52.94286,-785.77143,-620.97143
1.25000,52.94286,-785.77143,-620.97143
1.25781,52.94286,-785.77143,-620.97143
1.26562,52.94286,-788.71429,-620.97143
1.27344,55.88571,-785.77143,-620.97143
1.28125,55.88571,-785.77143,-620.97143
1.28906,55.88571,-785.77143,-620.97143
1.29688,55.88571,-785.77143,-618.02857
1.30469,55.88571,-785.77143,-618.02857
1.31250,52.94286,-785.77143,-618.02857
1.32031,52.94286,-782.82857,-618.02857
1.32812,52.94286,-782.82857,-620.97143
1.33594,52.94286,-782.82857,-620.97143
1.34375,52.94286,-785.77143,-620.97143
1.35156,52.94286,-785.77143,-618.02857
1.35938,52.94286,-785.77143,-618.02857
1.36719,52.94286,-782.82857,-618.02857
1.37500,52.94286,-782.82857,-620.97143
1.38281,52.94286,-782.82857,-620.97143
1.39062,52.94286,-785.77143,-620.97143
1.39844,52.94286,-785.77143,-620.97143
1.40625,52.94286,-785.77143,-620.97143
1.41406,52.94286,-785.77143,-620.97143
1.42188,55.88571,-785.77143,-620.97143
1.42969,55.88571,-785.77143,-618.02857
1.43750,55.88571,-785.77143,-620.97143
1.44531,52.94286,-785.77143,-618.02857
1.45312,52.94286,-785.77143,-618.02857
1.46094,52.94286,-785.77143,-618.02857
1.46875,52.94286,-785.77143,-620.97143
1.47656,52.94286,-785.77143,-618.02857
1.48438,52.94286,-785.77143,-618.02857
1.49219,52.94286,-785.77143,-618.02857
1.50000,52.94286,-785.77143,-618.02857
1.50781,52.94286,-785.77143,-618.02857
1.51562,52.94286,-785.77143,-620.97143
1.52344,52.94286,-785.77143,-620.97143
1.53125,55.88571,-785.77143,-620.97143
1.53906,52.94286,-785.77143,-618.02857
1.54688,55.88571,-785.77143,-620.97143
1.55469,52.94286,-785.77143,-620.97143
1.56250,52.94286,-785.77143,-618.02857
1.57031,52.94286,-785.77143,-618.02857
1.57812,52.94286,-785.77143,-618.02857
1.58594,52.94286,-785.77143,-620.97143
1.59375,55.88571,-785.77143,-620.97143
1.60156,52.94286,-785.77143,-620.97143
1.60938,52.94286,-785.77143,-620.97143
1.61719,52.94286,-785.77143,-620.97143
1.62500,52.94286,-785.77143,-620.97143
1.63281,52.94286,-785.77143,-618.02857
1.64062,52.94286,-785.77143,-618.02857
1.64844,52.94286,-785.77143,-618.02857
1.65625,52.94286,-785.77143,-618.02857
1.66406,55.88571,-785.77143,-618.02857
1.67188,55.88571,-785.77143,-620.97143
1.67969,52.94286,-785.77143,-620.97143
1.68750,52.94286,-785.77143,-620.97143
1.69531,52.94286,-785.77143,-618.02857
1.70312,52.94286,-785.77143,-618.02857
1.71094,52.94286,-782.82857,-618.02857
1.71875,52.94286,-782.82857,-620.97143
1.72656,52.94286,-785.77143,-618.02857
1.73438,52.94286,-785.77143,-618.02857
1.74219,52.94286,-785.77143,-618.02857
1.75000,52.94286,-785.77143,-618.02857
1.75781,52.94286,-785.77143,-620.97143
1.76562,52.94286,-785.77143,-620.97143
1.77344,55.88571,-785.77143,-620.97143
1.78125,55.88571,-785.77143,-620.97143
1.78906,55.88571,-785.77143,-618.02857
1.79688,55.88571,-785.77143,-620.97143
1.80469,55.88571,-785.77143,-620.97143
1.81250,52.94286,-785.77143,-618.02857
1.82031,52.94286,-785.77143,-618.02857
1.82812,52.94286,-788.71429,-618.02857
1.83594,50.00000,-788.71429,-618.02857
1.84375,50.00000,-785.77143,-618.02857
1.85156,52.94286,-785.77143,-618.02857
1.85938,52.94286,-785.77143,-620.97143
1.86719,55.88571,-782.82857,-620.97143
1.87500,55.88571,-782.82857,-623.91429
1.88281,55.88571,-782.82857,-623.91429
1.89062,55.88571,-782.82857,-623.91429
1.89844,55.88571,-782.82857,-620.97143
1.90625,55.88571,-782.82857,-620.97143
1.91406,55.88571,-785.77143,-618.02857
1.92188,52.94286,-785.77143,-618.02857
1.92969,52.94286,-788.71429,-615.08571
1.93750,52.94286,-788.71429,-615.08571
1.94531,52.94286,-788.71429,-615.08571
1.95312,52.94286,-785.77143,-615.08571
1.96094,52.94286,-785.77143,-615.08571
1.96875,52.94286,-785.77143,-618.02857
1.97656,52.94286,-785.77143,-620.97143
1.98438,55.88571,-782.82857,-620.97143
1.99219,55.88571,-782.82857,-620.97143
2.00000,55.88571,-785.77143,-620.97143
2.00781,55.88571,-785.77143,-620.97143
2.01562,55.88571,-785.77143,-620.97143
2.02344,52.94286,-785.77143,-620.97143
2.03125,52.94286,-785.77143,-618.02857
2.03906,52.94286,-785.77143,-618.02857
2.04688,52.94286,-785.77143,-618.02857
2.05469,52.94286,-785.77143,-618.02857
2.06250,55.88571,-785.77143,-618.02857
2.07031,55.88571,-785.77143,-618.02857
2.07812,55.88571,-785.77143,-618.02857
2.08594,55.88571,-785.77143,-618.02857
2.09375,52.94286,-785.77143,-618.02857
2.10156,52.94286,-785.77143,-618.02857
2.10938,52.94286,-785.77143,-618.02857
2.11719,52.94286,-785.77143,-618.02857
2.12500,52.94286,-785.77143,-618.02857
2.13281,52.94286,-785.77143,-618.02857
2.14062,52.94286,-782.82857,-618.02857
2.14844,52.94286,-782.82857,-618.02857
2.15625,55.88571,-782.82857,-620.97143
2.16406,55.88571,-782.82857,-620.97143
2.17188,55.88571,-785.77143,-620.97143
2.17969,55.88571,-785.77143,-620.97143
2.18750,55.88571,-785.77143,-620.97143
2.19531,55.88571,-785.77143,-620.97143
2.20312,55.88571,-785.77143,-618.02857
2.21094,55.88571,-785.77143,-620.97143
2.21875,52.94286,-785.77143,-618.02857
2.22656,52.94286,-785.77143,-618.02857
2.23438,52.94286,-785.77143,-618.02857
2.24219,52.94286,-785.77143,-618.02857
2.25000,52.94286,-785.77143,-620.97143
2.25781,52.94286,-785.77143,-620.97143
2.26562,52.94286,-785.77143,-620.97143
2.27344,52.94286,-785.77143,-618.02857
2.28125,52.94286,-785.77143,-618.02857
2.28906,55.88571,-785.77143,-618.02857
2.29688,52.94286,-785.77143,-620.97143
2.30469,52.94286,-785.77143,-620.97143
2.31250,52.94286,-785.77143,-618.02857
2.32031,52.94286,-785.77143,-618.02857
2.32812,52.94286,-785.77143,-618.02857
2.33594,52.94286,-785.77143,-618.02857
2.34375,52.94286,-785.77143,-618.02857
2.35156,52.94286,-785.77143,-618.02857
2.35938,52.94286,-785.77143,-618.02857
2.36719,52.94286,-785.77143,-618.02857
2.37500,52.94286,-785.77143,-618.02857
2.38281,52.94286,-785.77143,-618.02857
2.39062,52.94286,-785.77143,-620.97143
2.39844,52.94286,-785.77143,-618.02857
2.40625,52.94286,-785.77143,-618.02857
2.41406,55.88571,-785.77143,-618.02857
2.42188,55.88571,-785.77143,-620.97143
2.42969,55.88571,-785.77143,-618.02857
2.43750,55.88571,-785.77143,-618.02857
2.44531,55.88571,-785.77143,-618.02857
2.45312,52.94286,-785.77143,-620.97143
2.46094,52.94286,-785.77143,-618.02857
2.46875,52.94286,-782.82857,-618.02857
2.47656,52.94286,-782.82857,-618.02857
2.48438,52.94286,-785.77143,-618.02857
2.49219,52.94286,-785.77143,-618.02857
2.50000,52.94286,-785.77143,-618.02857
2.50781,52.94286,-785.77143,-618.02857
2.51562,52.94286,-785.77143,-618.02857
2.52344,52.94286,-785.77143,-618.02857
2.53125,55.88571,-785.77143,-620.97143
2.53906,55.88571,-785.77143,-618.02857
2.54688,55.88571,-785.77143,-618.02857
2.55469,55.88571,-785.77143,-618.02857
2.56250,55.88571,-785.77143,-618.02857
2.57031,52.94286,-785.77143,-618.02857
2.57812,52.94286,-785.77143,-615.08571
2.58594,52.94286,-788.71429,-618.02857
2.59375,52.94286,-788.71429,-618.02857
2.60156,52.94286,-785.77143,-618.02857
2.60938,52.94286,-785.77143,-618.02857
2.61719,52.94286,-785.77143,-618.02857
2.62500,52.94286,-785.77143,-620.97143
2.63281,55.88571,-785.77143,-623.91429
2.64062,55.88571,-782.82857,-623.91429
2.64844,55.88571,-782.82857,-623.91429
2.65625,55.88571,-782.82857,-623.91429
2.66406,55.88571,-782.82857,-620.97143
2.67188,55.88571,-785.77143,-620.97143
2.67969,52.94286,-785.77143,-618.02857
2.68750,52.94286,-788.71429,-615.08571
2.69531,52.94286,-788.71429,-615.08571
2.70312,52.94286,-788.71429,-612.14286
2.71094,52.94286,-788.71429,-615.08571
2.71875,52.94286,-788.71429,-615.08571
2.72656,52.94286,-785.77143,-618.02857
2.73438,52.94286,-785.77143,-618.02857
2.74219,52.94286,-785.77143,-618.02857
2.75000,55.88571,-782.82857,-620.97143
2.75781,55.88571,-785.77143,-620.97143
2.76562,55.88571,-785.77143,-620.97143
2.77344,52.94286,-785.77143,-620.97143
2.78125,55.88571,-785.77143,-618.02857
2.78906,52.94286,-785.77143,-618.02857
2.79688,52.94286,-785.77143,-618.02857
2.80469,52.94286,-785.77143,-618.02857
2.81250,55.88571,-785.77143,-618.02857
2.82031,55.88571,-785.77143,-618.02857
2.82812,55.88571,-785.77143,-620.97143
2.83594,55.88571,-785.77143,-620.97143
2.84375,55.88571,-785.77143,-618.02857
2.85156,55.88571,-785.77143,-618.02857
2.85938,52.94286,-785.77143,-618.02857
2.86719,52.94286,-785.77143,-618.02857
2.87500,52.94286,-785.77143,-618.02857
2.88281,52.94286,-785.77143,-618.02857
2.89062,52.94286,-785.77143,-618.02857
2.89844,52.94286,-785.77143,-618.02857
2.90625,52.94286,-785.77143,-618.02857
2.91406,52.94286,-785.77143,-618.02857
2.92188,55.88571,-785.77143,-618.02857
2.92969,55.88571,-785.77143,-620.97143
2.93750,55.88571,-785.77143,-620.97143
2.94531,55.88571,-785.77143,-620.97143
2.95312,55.88571,-785.77143,-618.02857
2.96094,55.88571,-785.77143,-620.97143
2.96875,52.94286,-785.77143,-620.97143
2.97656,52.94286,-785.77143,-620.97143
2.98438,52.94286,-785.77143,-618.02857
2.99219,52.94286,-788.71429,-618.02857
3.00000,52.94286,-785.77143,-618.02857
3.00781,52.94286,-785.77143,-618.02857
3.01562,52.94286,-785.77143,-618.02857
3.02344,52.94286,-785.77143,-618.02857
3.03125,52.94286,-785.77143,-618.02857
3.03906,52.94286,-785.77143,-618.02857
3.04688,52.94286,-785.77143,-618.02857
3.05469,52.94286,-785.77143,-618.02857
3.06250,52.94286,-785.77143,-620.97143
3.07031,52.94286,-785.77143,-618.02857
3.07812,52.94286,-785.77143,-618.02857
3.08594,52.94286,-785.77143,-618.02857
3.09375,52.94286,-785.77143,-618.02857
3.10156,55.88571,-785.77143,-618.02857
3.10938,52.94286,-785.77143,-618.02857
3.11719,52.94286,-785.77143,-620.97143
3.12500,52.94286,-785.77143,-620.97143
3.13281,52.94286,-785.77143,-618.02857
3.14062,52.94286,-785.77143,-618.02857
3.14844,52.94286,-785.77143,-618.02857
3.15625,52.94286,-785.77143,-618.02857
3.16406,52.94286,-785.77143,-618.02857
3.17188,55.88571,-785.77143,-618.02857
3.17969,55.88571,-785.77143,-618.02857
3.18750,55.88571,-785.77143,-620.97143
3.19531,55.88571,-785.77143,-620.97143
3.20312,52.94286,-785.77143,-618.02857
3.21094,52.94286,-785.77143,-618.02857
3.21875,52.94286,-785.77143,-618.02857
3.22656,52.94286,-785.77143,-618.02857
3.23438,52.94286,-785.77143,-618.02857
3.24219,52.94286,-785.77143,-618.02857
3.25000,52.94286,-785.77143,-618.02857
3.25781,52.94286,-785.77143,-618.02857
3.26562,52.94286,-785.77143,-618.02857
3.27344,52.94286,-785.77143,-618.02857
3.28125,52.94286,-785.77143,-620.97143
3.28906,55.88571,-785.77143,-618.02857
3.29688,55.88571,-785.77143,-618.02857
3.30469,55.88571,-785.77143,-620.97143
3.31250,55.88571,-785.77143,-618.02857
3.32031,52.94286,-785.77143,-618.02857
3.32812,52.94286,-785.77143,-618.02857
3.33594,52.94286,-788.71429,-615.08571
3.34375,52.94286,-788.71429,-615.08571
3.35156,50.00000,-788.71429,-618.02857
3.35938,50.00000,-788.71429,-618.02857
3.36719,52.94286,-785.77143,-620.97143
3.37500,52.94286,-785.77143,-620.97143
3.38281,55.88571,-785.77143,-620.97143
3.39062,55.88571,-782.82857,-620.97143
3.39844,55.88571,-782.82857,-620.97143
3.40625,55.88571,-782.82857,-623.91429
3.41406,55.88571,-782.82857,-620.97143
3.42188,55.88571,-782.82857,-620.97143
3.42969,52.94286,-785.77143,-618.02857
3.43750,52.94286,-785.77143,-618.02857
3.44531,52.94286,-785.77143,-615.08571
3.45312,52.94286,-788.71429,-615.08571
3.46094,52.94286,-788.71429,-615.08571
3.46875,52.94286,-788.71429,-615.08571
3.47656,52.94286,-788.71429,-615.08571
3.48438,52.94286,-785.77143,-615.08571
3.49219,55.88571,-785.77143,-618.02857
3.50000,52.94286,-785.77143,-620.97143
3.50781,52.94286,-785.77143,-620.97143
3.51562,52.94286,-785.77143,-620.97143
3.52344,52.94286,-785.77143,-620.97143
3.53125,52.94286,-785.77143,-620.97143
3.53906,52.94286,-785.77143,-620.97143
3.54688,52.94286,-785.77143,-618.02857
3.55469,52.94286,-785.77143,-618.02857
3.56250,52.94286,-785.77143,-618.02857
3.57031,55.88571,-785.77143,-620.97143
3.57812,55.88571,-785.77143,-620.97143
3.58594,55.88571,-785.77143,-618.02857
3.59375,55.88571,-785.77143,-618.02857
3.60156,52.94286,-785.77143,-618.02857
3.60938,52.94286,-785.77143,-618.02857
3.61719,52.94286,-785.77143,-618.02857
3.62500,52.94286,-785.77143,-618.02857
3.63281,52.94286,-785.77143,-618.02857
3.64062,52.94286,-785.77143,-618.02857
3.64844,52.94286,-785.77143,-618.02857
3.65625,52.94286,-785.77143,-618.02857
3.66406,55.88571,-785.77143,-618.02857
3.67188,52.94286,-785.77143,-618.02857
3.67969,52.94286,-785.77143,-618.02857
3.68750,52.94286,-785.77143,-620.97143
3.69531,52.94286,-785.77143,-620.97143
3.70312,52.94286,-785.77143,-620.97143
3.71094,52.94286,-785.77143,-620.97143
3.71875,52.94286,-785.77143,-618.02857
3.72656,52.94286,-785.77143,-618.02857
3.73438,52.94286,-785.77143,-618.02857
3.74219,52.94286,-785.77143,-618.02857
3.75000,52.94286,-785.77143,-618.02857
3.75781,52.94286,-785.77143,-618.02857
3.76562,52.94286,-785.77143,-618.02857
3.77344,52.94286,-785.77143,-618.02857
3.78125,52.94286,-785.77143,-618.02857
3.78906,52.94286,-785.77143,-618.02857
3.79688,52.94286,-785.77143,-618.02857
3.80469,52.94286,-785.77143,-618.02857
3.81250,52.94286,-785.77143,-618.02857
3.82031,52.94286,-785.77143,-618.02857
3.82812,52.94286,-785.77143,-618.02857
3.83594,52.94286,-785.77143,-618.02857
3.84375,52.94286,-785.77143,-618.02857
3.85156,52.94286,-785.77143,-620.97143
3.85938,52.94286,-785.77143,-618.02857
3.86719,52.94286,-785.77143,-618.02857
3.87500,52.94286,-785.77143,-620.97143
3.88281,52.94286,-785.77143,-618.02857
3.89062,52.94286,-785.77143,-618.02857
3.89844,52.94286,-785.77143,-618.02857
3.90625,52.94286,-785.77143,-618.02857
3.91406,52.94286,-785.77143,-618.02857
3.92188,52.94286,-785.77143,-618.02857
3.92969,52.94286,-785.77143,-618.02857
3.93750,52.94286,-785.77143,-618.02857
3.94531,52.94286,-785.77143,-620.97143
3.95312,55.88571,-785.77143,-620.97143
3.96094,52.94286,-785.77143,-618.02857
3.96875,52.94286,-785.77143,-620.97143
3.97656,52.94286,-785.77143,-620.97143
3.98438,52.94286,-785.77143,-618.02857
3.99219,52.94286,-785.77143,-618.02857
4.00000,52.94286,-785.77143,-618.02857
4.00781,52.94286,-785.77143,-618.02857
4.01562,52.94286,-785.77143,-618.02857
4.02344,52.94286,-785.77143,-618.02857
4.03125,52.94286,-785.77143,-618.02857
4.03906,52.94286,-785.77143,-618.02857
4.04688,55.88571,-785.77143,-620.97143
4.05469,55.88571,-785.77143,-620.97143
4.06250,55.88571,-785.77143,-620.97143
4.07031,55.88571,-785.77143,-620.97143
4.07812,55.88571,-785.77143,-620.97143
4.08594,52.94286,-785.77143,-618.02857
4.09375,52.94286,-785.77143,-618.02857
4.10156,52.94286,-785.77143,-615.08571
4.10938,52.94286,-788.71429,-615.08571
4.11719,52.94286,-788.71429,-615.08571
4.12500,50.00000,-788.71429,-615.08571
4.13281,52.94286,-788.71429,-618.02857
4.14062,52.94286,-785.77143,-618.02857
4.14844,52.94286,-785.77143,-620.97143
4.15625,55.88571,-782.82857,-620.97143
4.16406,55.88571,-782.82857,-623.91429
4.17188,55.88571,-782.82857,-623.91429
4.17969,55.88571,-782.82857,-623.91429
4.18750,55.88571,-782.82857,-623.91429
4.19531,52.94286,-782.82857,-620.97143
4.20312,52.94286,-785.77143,-618.02857
4.21094,50.00000,-785.77143,-618.02857
4.21875,50.00000,-788.71429,-615.08571
4.22656,50.00000,-788.71429,-615.08571
4.23438,52.94286,-788.71429,-615.08571
4.24219,52.94286,-788.71429,-615.08571
4.25000,52.94286,-788.71429,-615.08571
4.25781,52.94286,-785.77143,-618.02857
4.26562,52.94286,-785.77143,-618.02857
4.27344,52.94286,-785.77143,-620.97143
4.28125,52.94286,-782.82857,-620.97143
4.28906,52.94286,-782.82857,-620.97143
4.29688,52.94286,-782.82857,-620.97143
4.30469,52.94286,-785.77143,-620.97143
4.31250,52.94286,-785.77143,-620.97143
4.32031,52.94286,-785.77143,-618.02857
4.32812,52.94286,-788.71429,-618.02857
4.33594,55.88571,-788.71429,-618.02857
4.34375,55.88571,-785.77143,-620.97143
4.35156,55.88571,-785.77143,-618.02857
4.35938,55.88571,-785.77143,-618.02857
4.36719,55.88571,-785.77143,-618.02857
4.37500,52.94286,-785.77143,-618.02857
4.38281,52.94286,-785.77143,-615.08571
4.39062,52.94286,-785.77143,-618.02857
4.39844,52.94286,-785.77143,-618.02857
4.40625,52.94286,-785.77143,-618.02857
4.41406,52.94286,-785.77143,-618.02857
4.42188,55.88571,-785.77143,-618.02857
4.42969,52.94286,-785.77143,-618.02857
4.43750,52.94286,-785.77143,-620.97143
4.44531,52.94286,-785.77143,-620.97143
4.45312,52.94286,-782.82857,-620.97143
4.46094,52.94286,-782.82857,-620.97143
4.46875,52.94286,-782.82857,-620.97143
4.47656,52.94286,-782.82857,-618.02857
4.48438,52.94286,-785.77143,-618.02857
4.49219,52.94286,-785.77143,-618.02857
4.50000,52.94286,-785.77143,-620.97143
4.50781,52.94286,-785.77143,-620.97143
4.51562,52.94286,-785.77143,-618.02857
4.52344,52.94286,-788.71429,-618.02857
4.53125,52.94286,-785.77143,-618.02857
4.53906,52.94286,-785.77143,-618.02857
4.54688,52.94286,-785.77143,-618.02857
4.55469,52.94286,-785.77143,-618.02857
4.56250,55.88571,-785.77143,-618.02857
4.57031,55.88571,-785.77143,-618.02857
4.57812,55.88571,-785.77143,-618.02857
4.58594,55.88571,-785.77143,-618.02857
4.59375,55.88571,-785.77143,-618.02857
4.60156,55.88571,-785.77143,-618.02857
4.60938,52.94286,-785.77143,-620.97143
4.61719,52.94286,-785.77143,-620.97143
4.62500,52.94286,-782.82857,-620.97143
4.63281,52.94286,-782.82857,-620.97143
4.64062,52.94286,-782.82857,-618.02857
4.64844,52.94286,-785.77143,-620.97143
4.65625,52.94286,-785.77143,-620.97143
4.66406,52.94286,-785.77143,-620.97143
4.67188,52.94286,-785.77143,-620.97143
4.67969,52.94286,-785.77143,-618.02857
4.68750,50.00000,-785.77143,-620.97143
4.69531,52.94286,-785.77143,-620.97143
4.70312,52.94286,-785.77143,-620.97143
4.71094,52.94286,-785.77143,-620.97143
4.71875,52.94286,-785.77143,-618.02857
4.72656,52.94286,-785.77143,-618.02857
4.73438,52.94286,-782.82857,-618.02857
4.74219,52.94286,-785.77143,-620.97143
4.75000,52.94286,-785.77143,-618.02857
4.75781,52.94286,-785.77143,-618.02857
4.76562,52.94286,-785.77143,-618.02857
4.77344,52.94286,-785.77143,-618.02857
4.78125,52.94286,-782.82857,-618.02857
4.78906,52.94286,-785.77143,-618.02857
4.79688,52.94286,-785.77143,-620.97143
4.80469,52.94286,-785.77143,-620.97143
4.81250,52.94286,-785.77143,-620.97143
4.82031,52.94286,-782.82857,-620.97143
4.82812,52.94286,-785.77143,-620.97143
4.83594,55.88571,-785.77143,-618.02857
4.84375,55.88571,-785.77143,-618.02857
4.85156,55.88571,-785.77143,-618.02857
4.85938,55.88571,-785.77143,-618.02857
4.86719,52.94286,-785.77143,-618.02857
4.87500,52.94286,-785.77143,-618.02857
4.88281,52.94286,-785.77143,-618.02857
4.89062,52.94286,-788.71429,-618.02857
4.89844,52.94286,-788.71429,-618.02857
4.90625,52.94286,-785.77143,-620.97143
4.91406,52.94286,-785.77143,-620.97143
4.92188,52.94286,-782.82857,-620.97143
4.92969,55.88571,-782.82857,-620.97143
4.93750,55.88571,-782.82857,-620.97143
4.94531,55.88571,-779.88571,-623.91429
4.95312,55.88571,-782.82857,-623.91429
4.96094,52.94286,-785.77143,-623.91429
4.96875,52.94286,-785.77143,-623.91429
4.97656,52.94286,-785.77143,-620.97143
4.98438,52.94286,-785.77143,-618.02857
4.99219,52.94286,-788.71429,-618.02857
5.00000,52.94286,-785.77143,-615.08571
5.00781,52.94286,-785.77143,-615.08571
5.01562,52.94286,-785.77143,-615.08571
5.02344,52.94286,-782.82857,-615.08571
5.03125,52.94286,-782.82857,-615.08571
5.03906,52.94286,-782.82857,-618.02857
5.04688,52.94286,-782.82857,-618.02857
5.05469,52.94286,-785.77143,-620.97143
5.06250,52.94286,-785.77143,-620.97143
5.07031,52.94286,-785.77143,-623.91429
5.07812,52.94286,-785.77143,-623.91429
5.08594,52.94286,-788.71429,-620.97143
5.09375,52.94286,-785.77143,-620.97143
5.10156,55.88571,-785.77143,-618.02857
5.10938,55.88571,-785.77143,-618.02857
5.11719,55.88571,-782.82857,-618.02857
5.12500,55.88571,-785.77143,-620.97143
5.13281,55.88571,-785.77143,-620.97143
5.14062,55.88571,-785.77143,-620.97143
5.14844,52.94286,-785.77143,-623.91429
5.15625,52.94286,-785.77143,-620.97143
5.16406,52.94286,-785.77143,-620.97143
5.17188,52.94286,-782.82857,-620.97143
5.17969,52.94286,-782.82857,-618.02857
5.18750,52.94286,-782.82857,-618.02857
5.19531,52.94286,-782.82857,-615.08571
5.20312,52.94286,-782.82857,-618.02857
5.21094,52.94286,-782.82857,-618.02857
5.21875,52.94286,-782.82857,-620.97143
5.22656,55.88571,-785.77143,-620.97143
5.23438,55.88571,-785.77143,-620.97143
5.24219,52.94286,-788.71429,-623.91429
5.25000,52.94286,-788.71429,-623.91429
5.25781,52.94286,-788.71429,-623.91429
5.26562,52.94286,-785.77143,-620.97143
5.27344,55.88571,-785.77143,-620.97143
5.28125,55.88571,-782.82857,-618.02857
5.28906,52.94286,-782.82857,-618.02857
5.29688,55.88571,-782.82857,-615.08571
5.30469,52.94286,-785.77143,-615.08571
5.31250,52.94286,-785.77143,-618.02857
5.32031,52.94286,-788.71429,-618.02857
5.32812,52.94286,-788.71429,-618.02857
5.33594,52.94286,-788.71429,-618.02857
5.34375,52.94286,-788.71429,-618.02857
5.35156,52.94286,-785.77143,-620.97143
5.35938,52.94286,-785.77143,-620.97143
5.36719,55.88571,-782.82857,-618.02857
5.37500,55.88571,-782.82857,-620.97143
5.38281,55.88571,-782.82857,-620.97143
5.39062,55.88571,-782.82857,-618.02857
5.39844,52.94286,-782.82857,-618.02857
5.40625,52.94286,-782.82857,-618.02857
5.41406,52.94286,-785.77143,-618.02857
5.42188,52.94286,-785.77143,-618.02857
5.42969,52.94286,-785.77143,-620.97143
5.43750,52.94286,-785.77143,-620.97143
5.44531,52.94286,-785.77143,-620.97143
5.45312,52.94286,-785.77143,-618.02857
5.46094,52.94286,-785.77143,-618.02857
5.46875,52.94286,-785.77143,-618.02857
5.47656,55.88571,-785.77143,-618.02857
5.48438,55.88571,-782.82857,-620.97143
5.49219,55.88571,-782.82857,-620.97143
5.50000,55.88571,-782.82857,-620.97143
5.50781,55.88571,-782.82857,-620.97143
5.51562,52.94286,-785.77143,-620.97143
5.52344,52.94286,-785.77143,-618.02857
5.53125,52.94286,-785.77143,-618.02857
5.53906,52.94286,-785.77143,-618.02857
5.54688,52.94286,-785.77143,-618.02857
5.55469,52.94286,-785.77143,-620.97143
5.56250,52.94286,-785.77143,-618.02857
5.57031,52.94286,-785.77143,-618.02857
5.57812,52.94286,-782.82857,-618.02857
5.58594,52.94286,-782.82857,-618.02857
5.59375,55.88571,-782.82857,-618.02857
5.60156,55.88571,-785.77143,-618.02857
5.60938,55.88571,-785.77143,-618.02857
5.61719,55.88571,-785.77143,-620.97143
5.62500,55.88571,-785.77143,-618.02857
5.63281,52.94286,-785.77143,-620.97143
5.64062,52.94286,-785.77143,-620.97143
5.64844,52.94286,-785.77143,-618.02857
5.65625,52.94286,-788.71429,-618.02857
5.66406,52.94286,-785.77143,-618.02857
5.67188,52.94286,-785.77143,-618.02857
5.67969,52.94286,-785.77143,-618.02857
5.68750,52.94286,-782.82857,-620.97143
5.69531,55.88571,-782.82857,-623.91429
5.70312,55.88571,-782.82857,-623.91429
5.71094,55.88571,-782.82857,-626.85714
5.71875,55.88571,-782.82857,-626.85714
5.72656,55.88571,-782.82857,-623.91429
5.73438,55.88571,-785.77143,-623.91429
5.74219,52.94286,-785.77143,-620.97143
5.75000,52.94286,-785.77143,-618.02857
5.75781,52.94286,-785.77143,-618.02857
5.76562,52.94286,-785.77143,-615.08571
5.77344,52.94286,-785.77143,-615.08571
5.78125,52.94286,-785.77143,-615.08571
5.78906,52.94286,-785.77143,-615.08571
5.79688,52.94286,-785.77143,-618.02857
5.80469,52.94286,-785.77143,-618.02857
5.81250,52.94286,-785.77143,-620.97143
5.82031,55.88571,-785.77143,-620.97143
5.82812,52.94286,-785.77143,-620.97143
5.83594,55.88571,-785.77143,-620.97143
5.84375,52.94286,-785.77143,-623.91429
5.85156,52.94286,-785.77143,-620.97143
5.85938,52.94286,-785.77143,-620.97143
5.86719,52.94286,-785.77143,-620.97143
5.87500,55.88571,-785.77143,-618.02857
5.88281,55.88571,-785.77143,-618.02857
5.89062,55.88571,-785.77143,-618.02857
5.89844,55.88571,-785.77143,-618.02857
5.90625,55.88571,-785.77143,-618.02857
5.91406,55.88571,-785.77143,-618.02857
5.92188,52.94286,-785.77143,-618.02857
5.92969,52.94286,-785.77143,-618.02857
5.93750,52.94286,-785.77143,-618.02857
5.94531,52.94286,-785.77143,-618.02857
5.95312,52.94286,-785.77143,-618.02857
5.96094,52.94286,-785.77143,-618.02857
5.96875,52.94286,-785.77143,-618.02857
5.97656,52.94286,-782.82857,-618.02857
5.98438,52.94286,-782.82857,-618.02857
5.99219,55.88571,-782.82857,-620.97143
6.00000,55.88571,-782.82857,-620.97143
6.00781,55.88571,-785.77143,-620.97143
6.01562,55.88571,-785.77143,-620.97143
6.02344,55.88571,-785.77143,-618.02857
6.03125,55.88571,-785.77143,-618.02857
6.03906,55.88571,-785.77143,-618.02857
6.04688,52.94286,-785.77143,-618.02857
6.05469,52.94286,-785.77143,-618.02857
6.06250,52.94286,-785.77143,-618.02857
6.07031,52.94286,-785.77143,-620.97143
6.07812,52.94286,-785.77143,-618.02857
6.08594,52.94286,-785.77143,-620.97143
6.09375,52.94286,-785.77143,-620.97143
6.10156,52.94286,-785.77143,-620.97143
6.10938,52.94286,-785.77143,-620.97143
6.11719,55.88571,-785.77143,-620.97143
6.12500,55.88571,-785.77143,-618.02857
6.13281,55.88571,-785.77143,-618.02857
6.14062,55.88571,-785.77143,-618.02857
6.14844,52.94286,-785.77143,-618.02857
6.15625,52.94286,-785.77143,-618.02857
6.16406,52.94286,-785.77143,-618.02857
6.17188,52.94286,-785.77143,-618.02857
6.17969,52.94286,-785.77143,-618.02857
6.18750,52.94286,-785.77143,-618.02857
6.19531,52.94286,-782.82857,-620.97143
6.20312,52.94286,-782.82857,-620.97143
6.21094,52.94286,-785.77143,-620.97143
6.21875,52.94286,-785.77143,-620.97143
6.22656,52.94286,-785.77143,-620.97143
6.23438,52.94286,-788.71429,-620.97143
6.24219,55.88571,-788.71429,-620.97143
6.25000,55.88571,-785.77143,-618.02857
6.25781,55.88571,-785.77143,-618.02857
6.26562,55.88571,-785.77143,-618.02857
6.27344,55.88571,-785.77143,-618.02857
6.28125,52.94286,-785.77143,-618.02857
6.28906,52.94286,-782.82857,-618.02857
6.29688,52.94286,-782.82857,-618.02857
6.30469,52.94286,-782.82857,-618.02857
6.31250,52.94286,-785.77143,-618.02857
6.32031,52.94286,-785.77143,-618.02857
6.32812,52.94286,-785.77143,-620.97143
6.33594,52.94286,-785.77143,-618.02857
6.34375,52.94286,-785.77143,-620.97143
6.35156,52.94286,-785.77143,-620.97143
6.35938,55.88571,-785.77143,-620.97143
6.36719,55.88571,-785.77143,-618.02857
6.37500,55.88571,-785.77143,-618.02857
6.38281,55.88571,-785.77143,-618.02857
6.39062,55.88571,-785.77143,-615.08571
6.39844,55.88571,-785.77143,-615.08571
6.40625,52.94286,-785.77143,-615.08571
6.41406,52.94286,-788.71429,-618.02857
6.42188,52.94286,-788.71429,-618.02857
6.42969,50.00000,-788.71429,-620.97143
6.43750,52.94286,-788.71429,-620.97143
6.44531,52.94286,-788.71429,-623.91429
6.45312,52.94286,-785.77143,-623.91429
6.46094,55.88571,-782.82857,-620.97143
6.46875,55.88571,-782.82857,-620.97143
6.47656,55.88571,-779.88571,-620.97143
6.48438,55.88571,-779.88571,-618.02857
6.49219,55.88571,-782.82857,-620.97143
6.50000,55.88571,-782.82857,-620.97143
6.50781,52.94286,-785.77143,-618.02857
6.51562,52.94286,-788.71429,-615.08571
6.52344,52.94286,-788.71429,-615.08571
6.53125,52.94286,-788.71429,-615.08571
6.53906,52.94286,-788.71429,-618.02857
6.54688,52.94286,-788.71429,-618.02857
6.55469,52.94286,-785.77143,-618.02857
6.56250,52.94286,-785.77143,-618.02857
6.57031,52.94286,-782.82857,-618.02857
6.57812,52.94286,-782.82857,-620.97143
6.58594,52.94286,-782.82857,-620.97143
6.59375,52.94286,-785.77143,-618.02857
6.60156,55.88571,-785.77143,-618.02857
6.60938,55.88571,-785.77143,-618.02857
6.61719,52.94286,-785.77143,-618.02857
6.62500,52.94286,-788.71429,-618.02857
6.63281,52.94286,-788.71429,-618.02857
6.64062,52.94286,-788.71429,-620.97143
6.64844,52.94286,-785.77143,-620.97143
6.65625,52.94286,-785.77143,-620.97143
6.66406,55.88571,-785.77143,-620.97143
6.67188,55.88571,-782.82857,-618.02857
6.67969,55.88571,-785.77143,-618.02857
6.68750,52.94286,-785.77143,-615.08571
6.69531,52.94286,-785.77143,-618.02857
6.70312,52.94286,-785.77143,-615.08571
6.71094,52.94286,-785.77143,-615.08571
6.71875,52.94286,-785.77143,-618.02857
6.72656,52.94286,-785.77143,-618.02857
6.73438,52.94286,-785.77143,-618.02857
6.74219,52.94286,-785.77143,-618.02857
6.75000,52.94286,-782.82857,-620.97143
6.75781,52.94286,-782.82857,-620.97143
6.76562,55.88571,-782.82857,-620.97143
6.77344,55.88571,-782.82857,-620.97143
6.78125,52.94286,-785.77143,-620.97143
6.78906,55.88571,-785.77143,-618.02857
6.79688,55.88571,-785.77143,-620.97143
6.80469,52.94286,-785.77143,-618.02857
6.81250,52.94286,-785.77143,-618.02857
6.82031,52.94286,-788.71429,-618.02857
6.82812,52.94286,-788.71429,-618.02857
6.83594,52.94286,-788.71429,-618.02857
6.84375,52.94286,-785.77143,-620.97143
6.85156,52.94286,-785.77143,-618.02857
6.85938,52.94286,-785.77143,-620.97143
6.86719,52.94286,-785.77143,-618.02857
6.87500,52.94286,-785.77143,-618.02857
6.88281,52.94286,-785.77143,-618.02857
6.89062,52.94286,-785.77143,-620.97143
6.89844,52.94286,-785.77143,-618.02857
6.90625,52.94286,-785.77143,-618.02857
6.91406,52.94286,-785.77143,-618.02857
6.92188,52.94286,-785.77143,-618.02857
6.92969,52.94286,-785.77143,-620.97143
6.93750,52.94286,-785.77143,-620.97143
6.94531,52.94286,-785.77143,-620.97143
6.95312,52.94286,-785.77143,-618.02857
6.96094,52.94286,-785.77143,-618.02857
6.96875,52.94286,-785.77143,-618.02857
6.97656,52.94286,-785.77143,-618.02857
6.98438,52.94286,-785.77143,-618.02857
6.99219,52.94286,-785.77143,-618.02857
7.00000,52.94286,-785.77143,-618.02857
7.00781,52.94286,-788.71429,-618.02857
7.01562,52.94286,-788.71429,-620.97143
7.02344,52.94286,-785.77143,-620.97143
7.03125,55.88571,-785.77143,-620.97143
7.03906,55.88571,-785.77143,-620.97143
7.04688,52.94286,-785.77143,-618.02857
7.05469,52.94286,-782.82857,-618.02857
7.06250,52.94286,-785.77143,-620.97143
7.07031,52.94286,-785.77143,-620.97143
7.07812,52.94286,-785.77143,-620.97143
7.08594,52.94286,-785.77143,-620.97143
7.09375,52.94286,-785.77143,-618.02857
7.10156,52.94286,-785.77143,-618.02857
7.10938,52.94286,-785.77143,-618.02857
7.11719,52.94286,-785.77143,-618.02857
7.12500,52.94286,-785.77143,-618.02857
7.13281,52.94286,-782.82857,-620.97143
7.14062,52.94286,-785.77143,-618.02857
7.14844,55.88571,-785.77143,-618.02857
7.15625,55.88571,-785.77143,-618.02857
7.16406,52.94286,-785.77143,-618.02857
7.17188,52.94286,-785.77143,-618.02857
7.17969,52.94286,-785.77143,-620.97143
7.18750,52.94286,-785.77143,-620.97143
7.19531,52.94286,-788.71429,-618.02857
7.20312,52.94286,-788.71429,-618.02857
7.21094,50.00000,-785.77143,-615.08571
7.21875,50.00000,-785.77143,-612.14286
7.22656,52.94286,-785.77143,-615.08571
7.23438,55.88571,-785.77143,-618.02857
7.24219,55.88571,-785.77143,-620.97143
7.25000,55.88571,-785.77143,-620.97143
7.25781,55.88571,-785.77143,-623.91429
7.26562,55.88571,-782.82857,-626.85714
7.27344,55.88571,-782.82857,-626.85714
7.28125,52.94286,-782.82857,-623.91429
7.28906,52.94286,-782.82857,-620.97143
7.29688,52.94286,-785.77143,-618.02857
7.30469,50.00000,-785.77143,-618.02857
7.31250,52.94286,-785.77143,-615.08571
7.32031,52.94286,-785.77143,-612.14286
7.32812,52.94286,-788.71429,-612.14286
7.33594,52.94286,-788.71429,-612.14286
7.34375,52.94286,-788.71429,-615.08571
7.35156,55.88571,-788.71429,-618.02857
7.35938,55.88571,-788.71429,-620.97143
7.36719,52.94286,-785.77143,-623.91429
7.37500,52.94286,-785.77143,-623.91429
7.38281,52.94286,-782.82857,-623.91429
7.39062,52.94286,-782.82857,-623.91429
7.39844,52.94286,-782.82857,-620.97143
7.40625,52.94286,-782.82857,-620.97143
7.41406,52.94286,-785.77143,-618.02857
7.42188,55.88571,-785.77143,-618.02857
7.42969,55.88571,-785.77143,-618.02857
7.43750,55.88571,-785.77143,-618.02857
7.44531,55.88571,-785.77143,-618.02857
7.45312,55.88571,-788.71429,-618.02857
7.46094,52.94286,-785.77143,-618.02857
7.46875,52.94286,-785.77143,-618.02857
7.47656,52.94286,-785.77143,-618.02857
7.48438,50.00000,-782.82857,-618.02857
7.49219,50.00000,-782.82857,-618.02857
7.50000,52.94286,-782.82857,-618.02857
7.50781,52.94286,-782.82857,-618.02857
7.51562,52.94286,-785.77143,-618.02857
7.52344,52.94286,-785.77143,-618.02857
7.53125,52.94286,-785.77143,-620.97143
7.53906,52.94286,-785.77143,-620.97143
7.54688,52.94286,-785.77143,-620.97143
7.55469,52.94286,-785.77143,-620.97143
7.56250,52.94286,-785.77143,-620.97143
7.57031,52.94286,-785.77143,-618.02857
7.57812,52.94286,-785.77143,-620.97143
7.58594,52.94286,-785.77143,-620.97143
7.59375,52.94286,-785.77143,-618.02857
7.60156,52.94286,-785.77143,-618.02857
7.60938,52.94286,-785.77143,-618.02857
7.61719,52.94286,-785.77143,-618.02857
7.62500,52.94286,-785.77143,-618.02857
7.63281,52.94286,-785.77143,-618.02857
7.64062,52.94286,-785.77143,-618.02857
7.64844,52.94286,-788.71429,-620.97143
7.65625,52.94286,-785.77143,-620.97143
7.66406,52.94286,-785.77143,-618.02857
7.67188,55.88571,-785.77143,-618.02857
7.67969,52.94286,-785.77143,-618.02857
7.68750,52.94286,-785.77143,-620.97143
7.69531,52.94286,-785.77143,-620.97143
7.70312,52.94286,-785.77143,-618.02857
7.71094,52.94286,-785.77143,-618.02857
7.71875,52.94286,-785.77143,-618.02857
7.72656,55.88571,-785.77143,-618.02857
7.73438,52.94286,-785.77143,-618.02857
7.74219,52.94286,-785.77143,-618.02857
7.75000,52.94286,-785.77143,-618.02857
7.75781,52.94286,-785.77143,-620.97143
7.76562,52.94286,-785.77143,-620.97143
7.77344,52.94286,-782.82857,-623.91429
7.78125,52.94286,-782.82857,-620.97143
7.78906,52.94286,-785.77143,-620.97143
7.79688,52.94286,-785.77143,-618.02857
7.80469,52.94286,-785.77143,-618.02857
7.81250,52.94286,-785.77143,-618.02857
7.82031,52.94286,-788.71429,-615.08571
7.82812,52.94286,-788.71429,-618.02857
7.83594,55.88571,-785.77143,-618.02857
7.84375,55.88571,-785.77143,-620.97143
7.85156,52.94286,-785.77143,-620.97143
7.85938,52.94286,-785.77143,-620.97143
7.86719,52.94286,-785.77143,-620.97143
7.87500,52.94286,-785.77143,-618.02857
7.88281,52.94286,-785.77143,-618.02857
7.89062,52.94286,-782.82857,-618.02857
7.89844,52.94286,-785.77143,-618.02857
7.90625,52.94286,-785.77143,-618.02857
7.91406,52.94286,-785.77143,-618.02857
7.92188,52.94286,-785.77143,-618.02857
7.92969,52.94286,-785.77143,-618.02857
7.93750,52.94286,-785.77143,-618.02857
7.94531,55.88571,-785.77143,-620.97143
7.95312,55.88571,-788.71429,-620.97143
7.96094,55.88571,-785.77143,-620.97143
7.96875,55.88571,-785.77143,-618.02857
7.97656,52.94286,-785.77143,-618.02857
7.98438,52.94286,-785.77143,-618.02857
7.99219,52.94286,-785.77143,-615.08571
8.00000,52.94286,-788.71429,-615.08571
8.00781,50.00000,-788.71429,-618.02857
8.01562,50.00000,-788.71429,-618.02857
8.02344,50.00000,-788.71429,-618.02857
8.03125,52.94286,-788.71429,-620.97143
8.03906,52.94286,-785.77143,-620.97143
8.04688,55.88571,-782.82857,-623.91429
8.05469,55.88571,-782.82857,-623.91429
8.06250,55.88571,-779.88571,-620.97143
8.07031,55.88571,-782.82857,-620.97143
8.07812,55.88571,-782.82857,-620.97143
8.08594,52.94286,-785.77143,-620.97143
8.09375,52.94286,-785.77143,-620.97143
8.10156,52.94286,-785.77143,-620.97143
8.10938,52.94286,-785.77143,-618.02857
8.11719,52.94286,-788.71429,-615.08571
8.12500,52.94286,-788.71429,-612.14286
8.13281,52.94286,-788.71429,-615.08571
8.14062,52.94286,-788.71429,-618.02857
8.14844,52.94286,-788.71429,-618.02857
8.15625,52.94286,-788.71429,-618.02857
8.16406,52.94286,-785.77143,-620.97143
8.17188,52.94286,-785.77143,-620.97143
8.17969,52.94286,-782.82857,-618.02857
8.18750,52.94286,-785.77143,-618.02857
8.19531,52.94286,-785.77143,-620.97143
8.20312,52.94286,-785.77143,-620.97143
8.21094,52.94286,-785.77143,-618.02857
8.21875,52.94286,-785.77143,-620.97143
8.22656,55.88571,-785.77143,-620.97143
8.23438,55.88571,-782.82857,-620.97143
8.24219,55.88571,-782.82857,-620.97143
8.25000,55.88571,-782.82857,-618.02857
8.25781,55.88571,-782.82857,-618.02857
8.26562,55.88571,-785.77143,-618.02857
8.27344,52.94286,-785.77143,-618.02857
8.28125,52.94286,-785.77143,-618.02857
8.28906,52.94286,-785.77143,-618.02857
8.29688,52.94286,-785.77143,-618.02857
8.30469,52.94286,-785.77143,-618.02857
8.31250,52.94286,-785.77143,-618.02857
8.32031,52.94286,-782.82857,-620.97143
8.32812,52.94286,-782.82857,-620.97143
8.33594,52.94286,-782.82857,-620.97143
8.34375,52.94286,-782.82857,-620.97143
8.35156,52.94286,-782.82857,-620.97143
8.35938,52.94286,-782.82857,-618.02857
8.36719,52.94286,-782.82857,-618.02857
8.37500,52.94286,-782.82857,-620.97143
8.38281,52.94286,-785.77143,-618.02857
8.39062,52.94286,-785.77143,-618.02857
8.39844,52.94286,-788.71429,-618.02857
8.40625,52.94286,-788.71429,-618.02857
8.41406,52.94286,-788.71429,-618.02857
8.42188,52.94286,-785.77143,-618.02857
8.42969,52.94286,-785.77143,-620.97143
8.43750,52.94286,-785.77143,-620.97143
8.44531,52.94286,-785.77143,-618.02857
8.45312,52.94286,-785.77143,-618.02857
8.46094,52.94286,-785.77143,-620.97143
8.46875,52.94286,-785.77143,-620.97143
8.47656,52.94286,-785.77143,-620.97143
8.48438,52.94286,-785.77143,-620.97143
8.49219,52.94286,-785.77143,-623.91429
8.50000,55.88571,-785.77143,-620.97143
8.50781,55.88571,-785.77143,-618.02857
8.51562,55.88571,-785.77143,-615.08571
8.52344,55.88571,-785.77143,-615.08571
8.53125,52.94286,-782.82857,-618.02857
8.53906,52.94286,-785.77143,-620.97143
8.54688,52.94286,-785.77143,-623.91429
8.55469,52.94286,-785.77143,-623.91429
8.56250,52.94286,-785.77143,-623.91429
8.57031,52.94286,-782.82857,-620.97143
8.57812,55.88571,-782.82857,-618.02857
8.58594,55.88571,-779.88571,-615.08571
8.59375,55.88571,-779.88571,-618.02857
8.60156,52.94286,-782.82857,-618.02857
8.60938,50.00000,-785.77143,-620.97143
8.61719,52.94286,-788.71429,-620.97143
8.62500,52.94286,-785.77143,-620.97143
8.63281,52.94286,-785.77143,-618.02857
8.64062,52.94286,-785.77143,-618.02857
8.64844,52.94286,-785.77143,-618.02857
8.65625,52.94286,-785.77143,-620.97143
8.66406,52.94286,-785.77143,-623.91429
8.67188,55.88571,-782.82857,-620.97143
8.67969,55.88571,-782.82857,-618.02857
8.68750,55.88571,-782.82857,-615.08571
8.69531,52.94286,-782.82857,-612.14286
8.70312,52.94286,-785.77143,-615.08571
8.71094,52.94286,-785.77143,-618.02857
8.71875,52.94286,-785.77143,-620.97143
8.72656,52.94286,-785.77143,-620.97143
8.73438,52.94286,-782.82857,-618.02857
8.74219,55.88571,-779.88571,-618.02857
8.75000,52.94286,-779.88571,-620.97143
8.75781,52.94286,-782.82857,-623.91429
8.76562,52.94286,-791.65714,-626.85714
8.77344,52.94286,-788.71429,-626.85714
8.78125,55.88571,-785.77143,-623.91429
8.78906,55.88571,-782.82857,-620.97143
8.79688,55.88571,-785.77143,-618.02857
8.80469,52.94286,-785.77143,-615.08571
8.81250,52.94286,-788.71429,-615.08571
8.82031,52.94286,-788.71429,-615.08571
8.82812,52.94286,-788.71429,-618.02857
8.83594,52.94286,-785.77143,-618.02857
8.84375,52.94286,-782.82857,-618.02857
8.85156,52.94286,-782.82857,-620.97143
8.85938,52.94286,-785.77143,-620.97143
8.86719,55.88571,-782.82857,-623.91429
8.87500,55.88571,-782.82857,-623.91429
8.88281,55.88571,-779.88571,-623.91429
8.89062,55.88571,-782.82857,-623.91429
8.89844,52.94286,-785.77143,-623.91429
8.90625,52.94286,-785.77143,-620.97143
8.91406,52.94286,-785.77143,-618.02857
8.92188,52.94286,-785.77143,-618.02857
8.92969,52.94286,-788.71429,-618.02857
8.93750,52.94286,-788.71429,-615.08571
8.94531,52.94286,-785.77143,-615.08571
8.95312,52.94286,-785.77143,-618.02857
8.96094,52.94286,-785.77143,-618.02857
8.96875,52.94286,-785.77143,-615.08571
8.97656,52.94286,-785.77143,-618.02857
8.98438,52.94286,-785.77143,-620.97143
8.99219,52.94286,-785.77143,-623.91429
9.00000,52.94286,-785.77143,-623.91429
9.00781,52.94286,-785.77143,-623.91429
9.01562,52.94286,-785.77143,-620.97143
9.02344,52.94286,-785.77143,-620.97143
9.03125,52.94286,-785.77143,-618.02857
9.03906,52.94286,-785.77143,-618.02857
9.04688,55.88571,-785.77143,-618.02857
9.05469,55.88571,-782.82857,-618.02857
9.06250,55.88571,-782.82857,-618.02857
9.07031,55.88571,-782.82857,-618.02857
9.07812,55.88571,-782.82857,-618.02857
9.08594,52.94286,-785.77143,-618.02857
9.09375,52.94286,-785.77143,-620.97143
9.10156,52.94286,-785.77143,-620.97143
9.10938,50.00000,-785.77143,-620.97143
9.11719,52.94286,-785.77143,-620.97143
9.12500,52.94286,-785.77143,-618.02857
9.13281,52.94286,-785.77143,-618.02857
9.14062,52.94286,-782.82857,-620.97143
9.14844,52.94286,-782.82857,-618.02857
9.15625,55.88571,-782.82857,-620.97143
9.16406,55.88571,-785.77143,-620.97143
9.17188,55.88571,-785.77143,-618.02857
9.17969,55.88571,-785.77143,-620.97143
9.18750,55.88571,-785.77143,-620.97143
9.19531,55.88571,-785.77143,-618.02857
9.20312,55.88571,-785.77143,-620.97143
9.21094,52.94286,-785.77143,-618.02857
9.21875,52.94286,-785.77143,-618.02857
9.22656,52.94286,-785.77143,-618.02857
9.23438,52.94286,-785.77143,-620.97143
9.24219,52.94286,-785.77143,-620.97143
9.25000,52.94286,-782.82857,-620.97143
9.25781,52.94286,-785.77143,-620.97143
9.26562,52.94286,-785.77143,-618.02857
9.27344,55.88571,-785.77143,-618.02857
9.28125,55.88571,-785.77143,-618.02857
9.28906,55.88571,-785.77143,-618.02857
9.29688,55.88571,-782.82857,-620.97143
9.30469,55.88571,-782.82857,-618.02857
9.31250,52.94286,-785.77143,-618.02857
9.32031,52.94286,-785.77143,-620.97143
9.32812,52.94286,-785.77143,-620.97143
9.33594,52.94286,-782.82857,-620.97143
9.34375,52.94286,-785.77143,-620.97143
9.35156,52.94286,-785.77143,-620.97143
9.35938,52.94286,-785.77143,-620.97143
9.36719,52.94286,-782.82857,-620.97143
9.37500,52.94286,-785.77143,-620.97143
9.38281,55.88571,-785.77143,-620.97143
9.39062,55.88571,-782.82857,-620.97143
9.39844,52.94286,-782.82857,-620.97143
9.40625,52.94286,-785.77143,-618.02857
9.41406,52.94286,-785.77143,-618.02857
9.42188,52.94286,-785.77143,-618.02857
9.42969,52.94286,-785.77143,-618.02857
9.43750,52.94286,-785.77143,-620.97143
9.44531,52.94286,-785.77143,-620.97143
9.45312,52.94286,-785.77143,-620.97143
9.46094,52.94286,-785.77143,-620.97143
9.46875,55.88571,-785.77143,-620.97143
9.47656,52.94286,-782.82857,-618.02857
9.48438,52.94286,-782.82857,-620.97143
9.49219,52.94286,-785.77143,-620.97143
9.50000,52.94286,-782.82857,-618.02857
9.50781,52.94286,-782.82857,-618.02857
9.51562,52.94286,-785.77143,-618.02857
9.52344,52.94286,-785.77143,-618.02857
9.53125,52.94286,-785.77143,-618.02857
9.53906,55.88571,-785.77143,-615.08571
9.54688,55.88571,-782.82857,-615.08571
9.55469,52.94286,-785.77143,-618.02857
9.56250,52.94286,-785.77143,-620.97143
9.57031,52.94286,-785.77143,-623.91429
9.57812,55.88571,-785.77143,-623.91429
9.58594,55.88571,-785.77143,-623.91429
9.59375,55.88571,-785.77143,-620.97143
9.60156,52.94286,-785.77143,-618.02857
9.60938,52.94286,-785.77143,-618.02857
9.61719,52.94286,-785.77143,-615.08571
9.62500,52.94286,-788.71429,-615.08571
9.63281,52.94286,-788.71429,-615.08571
9.64062,52.94286,-785.77143,-618.02857
9.64844,52.94286,-785.77143,-618.02857
9.65625,52.94286,-785.77143,-620.97143
9.66406,55.88571,-785.77143,-623.91429
9.67188,55.88571,-782.82857,-626.85714
9.67969,55.88571,-782.82857,-626.85714
9.68750,55.88571,-782.82857,-623.91429
9.69531,55.88571,-782.82857,-623.91429
9.70312,55.88571,-782.82857,-620.97143
9.71094,52.94286,-785.77143,-618.02857
9.71875,52.94286,-788.71429,-615.08571
9.72656,52.94286,-788.71429,-615.08571
9.73438,52.94286,-788.71429,-615.08571
9.74219,52.94286,-788.71429,-615.08571
9.75000,52.94286,-788.71429,-618.02857
9.75781,52.94286,-785.77143,-618.02857
9.76562,52.94286,-782.82857,-620.97143
9.77344,52.94286,-782.82857,-620.97143
9.78125,52.94286,-782.82857,-620.97143
9.78906,55.88571,-782.82857,-620.97143
9.79688,55.88571,-785.77143,-620.97143
9.80469,55.88571,-785.77143,-620.97143
9.81250,55.88571,-785.77143,-620.97143
9.82031,55.88571,-785.77143,-620.97143
9.82812,52.94286,-785.77143,-618.02857
9.83594,52.94286,-785.77143,-618.02857
9.84375,52.94286,-785.77143,-620.97143
9.85156,52.94286,-785.77143,-618.02857
9.85938,52.94286,-785.77143,-620.97143
9.86719,52.94286,-782.82857,-620.97143
9.87500,55.88571,-782.82857,-620.97143
9.88281,55.88571,-782.82857,-620.97143
9.89062,55.88571,-785.77143,-620.97143
9.89844,55.88571,-785.77143,-618.02857
9.90625,52.94286,-785.77143,-618.02857
9.91406,52.94286,-785.77143,-618.02857
9.92188,52.94286,-785.77143,-618.02857
9.92969,52.94286,-785.77143,-618.02857
9.93750,52.94286,-785.77143,-618.02857
9.94531,52.94286,-785.77143,-618.02857
9.95312,52.94286,-782.82857,-620.97143
9.96094,52.94286,-785.77143,-620.97143
9.96875,55.88571,-782.82857,-620.97143
9.97656,52.94286,-785.77143,-620.97143
9.98438,52.94286,-785.77143,-620.97143
9.99219,52.94286,-785.77143,-623.91429
10.00000,52.94286,-785.77143,-620.97143
10.00781,52.94286,-785.77143,-618.02857
10.01562,55.88571,-785.77143,-618.02857
10.02344,52.94286,-785.77143,-618.02857
10.03125,52.94286,-785.77143,-618.02857
10.03906,52.94286,-785.77143,-618.02857
10.04688,52.94286,-785.77143,-618.02857
10.05469,52.94286,-785.77143,-618.02857
10.06250,52.94286,-785.77143,-618.02857
10.07031,52.94286,-785.77143,-618.02857
10.07812,52.94286,-785.77143,-620.97143
10.08594,52.94286,-785.77143,-620.97143
10.09375,55.88571,-785.77143,-620.97143
10.10156,55.88571,-785.77143,-618.02857
10.10938,52.94286,-785.77143,-618.02857
10.11719,52.94286,-785.77143,-618.02857
10.12500,55.88571,-785.77143,-618.02857
10.13281,52.94286,-785.77143,-620.97143
10.14062,52.94286,-785.77143,-620.97143
10.14844,52.94286,-785.77143,-618.02857
10.15625,52.94286,-785.77143,-620.97143
10.16406,52.94286,-785.77143,-620.97143
10.17188,52.94286,-785.77143,-620.97143
10.17969,52.94286,-782.82857,-618.02857
10.18750,52.94286,-782.82857,-620.97143
10.19531,52.94286,-785.77143,-618.02857
10.20312,52.94286,-785.77143,-618.02857
10.21094,52.94286,-785.77143,-618.02857
10.21875,52.94286,-785.77143,-618.02857
10.22656,52.94286,-785.77143,-618.02857
10.23438,52.94286,-785.77143,-620.97143
10.24219,55.88571,-785.77143,-618.02857
10.25000,52.94286,-785.77143,-620.97143
10.25781,52.94286,-785.77143,-620.97143
10.26562,52.94286,-785.77143,-620.97143
10.27344,52.94286,-785.77143,-618.02857
10.28125,52.94286,-782.82857,-618.02857
10.28906,52.94286,-782.82857,-618.02857
10.29688,52.94286,-785.77143,-618.02857
10.30469,52.94286,-785.77143,-618.02857
10.31250,52.94286,-785.77143,-615.08571
10.32031,52.94286,-785.77143,-618.02857
10.32812,52.94286,-785.77143,-618.02857
10.33594,52.94286,-785.77143,-620.97143
10.34375,52.94286,-785.77143,-620.97143
10.35156,55.88571,-785.77143,-618.02857
10.35938,55.88571,-785.77143,-618.02857
10.36719,52.94286,-785.77143,-618.02857
10.37500,55.88571,-785.77143,-618.02857
10.38281,52.94286,-785.77143,-620.97143
10.39062,52.94286,-785.77143,-618.02857
10.39844,52.94286,-788.71429,-618.02857
10.40625,50.00000,-788.71429,-618.02857
10.41406,52.94286,-788.71429,-618.02857
10.42188,50.00000,-788.71429,-618.02857
10.42969,52.94286,-785.77143,-620.97143
10.43750,52.94286,-785.77143,-620.97143
10.44531,55.88571,-782.82857,-620.97143
10.45312,55.88571,-782.82857,-620.97143
10.46094,55.88571,-782.82857,-620.97143
10.46875,55.88571,-782.82857,-620.97143
10.47656,55.88571,-782.82857,-620.97143
10.48438,55.88571,-785.77143,-618.02857
10.49219,52.94286,-785.77143,-618.02857
10.50000,52.94286,-785.77143,-618.02857
10.50781,52.94286,-788.71429,-618.02857
10.51562,50.00000,-785.77143,-618.02857
10.52344,52.94286,-785.77143,-618.02857
10.53125,52.94286,-785.77143,-618.02857
10.53906,52.94286,-785.77143,-618.02857
10.54688,52.94286,-785.77143,-618.02857
10.55469,52.94286,-785.77143,-618.02857
10.56250,55.88571,-785.77143,-618.02857
10.57031,55.88571,-785.77143,-618.02857
10.57812,52.94286,-785.77143,-618.02857
10.58594,52.94286,-785.77143,-620.97143
10.59375,52.94286,-785.77143,-620.97143
10.60156,52.94286,-785.77143,-620.97143
10.60938,52.94286,-785.77143,-620.97143
10.61719,52.94286,-785.77143,-618.02857
10.62500,52.94286,-785.77143,-618.02857
10.63281,52.94286,-785.77143,-620.97143
10.64062,52.94286,-785.77143,-620.97143
10.64844,52.94286,-782.82857,-620.97143
10.65625,55.88571,-782.82857,-620.97143
10.66406,52.94286,-785.77143,-618.02857
10.67188,52.94286,-785.77143,-618.02857
10.67969,52.94286,-785.77143,-618.02857
10.68750,50.00000,-785.77143,-618.02857
10.69531,50.00000,-785.77143,-618.02857
10.70312,50.00000,-785.77143,-618.02857
10.71094,52.94286,-785.77143,-618.02857
10.71875,52.94286,-785.77143,-618.02857
10.72656,52.94286,-785.77143,-620.97143
10.73438,52.94286,-782.82857,-620.97143
10.74219,52.94286,-782.82857,-620.97143
10.75000,52.94286,-785.77143,-620.97143
10.75781,52.94286,-785.77143,-620.97143
10.76562,52.94286,-785.77143,-620.97143
10.77344,52.94286,-785.77143,-618.02857
10.78125,52.94286,-785.77143,-620.97143
10.78906,52.94286,-785.77143,-620.97143
10.79688,52.94286,-785.77143,-620.97143
10.80469,52.94286,-785.77143,-618.02857
10.81250,52.94286,-785.77143,-618.02857
10.82031,52.94286,-785.77143,-618.02857
10.82812,52.94286,-785.77143,-618.02857
10.83594,52.94286,-785.77143,-618.02857
10.84375,52.94286,-785.77143,-618.02857
10.85156,52.94286,-785.77143,-618.02857
10.85938,52.94286,-785.77143,-618.02857
10.86719,52.94286,-785.77143,-618.02857
10.87500,52.94286,-785.77143,-618.02857
10.88281,52.94286,-785.77143,-618.02857
10.89062,52.94286,-785.77143,-618.02857
10.89844,52.94286,-785.77143,-618.02857
10.90625,52.94286,-785.77143,-618.02857
10.91406,52.94286,-785.77143,-618.02857
10.92188,52.94286,-785.77143,-618.02857
10.92969,52.94286,-785.77143,-618.02857
10.93750,52.94286,-785.77143,-620.97143
10.94531,52.94286,-785.77143,-618.02857
10.95312,52.94286,-782.82857,-618.02857
10.96094,52.94286,-785.77143,-620.97143
10.96875,52.94286,-785.77143,-618.02857
10.97656,52.94286,-785.77143,-618.02857
10.98438,52.94286,-785.77143,-618.02857
10.99219,52.94286,-785.77143,-618.02857
11.00000,52.94286,-785.77143,-618.02857
11.00781,52.94286,-785.77143,-618.02857
11.01562,52.94286,-785.77143,-620.97143
11.02344,52.94286,-785.77143,-620.97143
11.03125,52.94286,-785.77143,-620.97143
11.03906,52.94286,-785.77143,-620.97143
11.04688,52.94286,-785.77143,-618.02857
11.05469,52.94286,-785.77143,-618.02857
11.06250,52.94286,-785.77143,-618.02857
11.07031,52.94286,-785.77143,-618.02857
11.07812,52.94286,-785.77143,-618.02857
11.08594,52.94286,-785.77143,-618.02857
11.09375,52.94286,-785.77143,-618.02857
11.10156,52.94286,-785.77143,-618.02857
11.10938,52.94286,-785.77143,-620.97143
11.11719,52.94286,-785.77143,-620.97143
11.12500,55.88571,-785.77143,-620.97143
11.13281,55.88571,-785.77143,-620.97143
11.14062,55.88571,-785.77143,-620.97143
11.14844,55.88571,-785.77143,-618.02857
11.15625,52.94286,-785.77143,-618.02857
11.16406,52.94286,-785.77143,-618.02857
11.17188,52.94286,-788.71429,-618.02857
11.17969,52.94286,-788.71429,-618.02857
11.18750,50.00000,-788.71429,-618.02857
11.19531,50.00000,-788.71429,-618.02857
11.20312,50.00000,-785.77143,-620.97143
11.21094,52.94286,-785.77143,-620.97143
11.21875,55.88571,-782.82857,-620.97143
11.22656,55.88571,-782.82857,-623.91429
11.23438,55.88571,-782.82857,-623.91429
11.24219,55.88571,-782.82857,-623.91429
11.25000,55.88571,-782.82857,-623.91429
11.25781,55.88571,-782.82857,-623.91429
11.26562,52.94286,-785.77143,-620.97143
11.27344,52.94286,-785.77143,-618.02857
11.28125,50.00000,-785.77143,-615.08571
11.28906,50.00000,-788.71429,-618.02857
11.29688,50.00000,-788.71429,-618.02857
11.30469,50.00000,-788.71429,-615.08571
11.31250,52.94286,-785.77143,-615.08571
11.32031,52.94286,-785.77143,-618.02857
11.32812,52.94286,-785.77143,-620.97143
11.33594,52.94286,-785.77143,-618.02857
11.34375,55.88571,-785.77143,-620.97143
11.35156,52.94286,-785.77143,-620.97143
11.35938,52.94286,-785.77143,-620.97143
11.36719,52.94286,-785.77143,-620.97143
11.37500,52.94286,-785.77143,-618.02857
11.38281,52.94286,-785.77143,-618.02857
11.39062,52.94286,-785.77143,-618.02857
11.39844,52.94286,-785.77143,-618.02857
11.40625,55.88571,-785.77143,-620.97143
11.41406,52.94286,-785.77143,-620.97143
11.42188,52.94286,-782.82857,-620.97143
11.42969,55.88571,-782.82857,-618.02857
11.43750,52.94286,-785.77143,-620.97143
11.44531,52.94286,-785.77143,-620.97143
11.45312,52.94286,-785.77143,-618.02857
11.46094,52.94286,-785.77143,-618.02857
11.46875,52.94286,-785.77143,-618.02857
11.47656,52.94286,-785.77143,-618.02857
11.48438,52.94286,-785.77143,-618.02857
11.49219,52.94286,-785.77143,-618.02857
11.50000,52.94286,-785.77143,-620.97143
11.50781,52.94286,-782.82857,-620.97143
11.51562,52.94286,-782.82857,-620.97143
11.52344,52.94286,-782.82857,-620.97143
11.53125,52.94286,-782.82857,-620.97143
11.53906,52.94286,-785.77143,-620.97143
11.54688,52.94286,-785.77143,-620.97143
11.55469,52.94286,-785.77143,-620.97143
11.56250,52.94286,-785.77143,-618.02857
11.57031,52.94286,-785.77143,-618.02857
11.57812,52.94286,-785.77143,-620.97143
11.58594,52.94286,-785.77143,-620.97143
11.59375,52.94286,-785.77143,-618.02857
11.60156,52.94286,-785.77143,-620.97143
11.60938,52.94286,-785.77143,-620.97143
11.61719,52.94286,-785.77143,-618.02857
11.62500,52.94286,-785.77143,-618.02857
11.63281,52.94286,-785.77143,-618.02857
11.64062,52.94286,-785.77143,-618.02857
11.64844,52.94286,-785.77143,-618.02857
11.65625,52.94286,-785.77143,-618.02857
11.66406,52.94286,-785.77143,-618.02857
11.67188,52.94286,-785.77143,-620.97143
11.67969,52.94286,-785.77143,-618.02857
11.68750,52.94286,-785.77143,-620.97143
11.69531,52.94286,-785.77143,-618.02857
11.70312,52.94286,-785.77143,-618.02857
11.71094,52.94286,-785.77143,-618.02857
11.71875,52.94286,-785.77143,-618.02857
11.72656,52.94286,-785.77143,-618.02857
11.73438,52.94286,-782.82857,-620.97143
11.74219,52.94286,-782.82857,-620.97143
11.75000,52.94286,-782.82857,-620.97143
11.75781,52.94286,-785.77143,-620.97143
11.76562,52.94286,-785.77143,-618.02857
11.77344,52.94286,-785.77143,-618.02857
11.78125,52.94286,-785.77143,-618.02857
11.78906,52.94286,-785.77143,-618.02857
11.79688,52.94286,-785.77143,-618.02857
11.80469,52.94286,-785.77143,-620.97143
11.81250,52.94286,-785.77143,-618.02857
11.82031,52.94286,-785.77143,-620.97143
11.82812,52.94286,-785.77143,-618.02857
11.83594,52.94286,-782.82857,-620.97143
11.84375,52.94286,-782.82857,-620.97143
11.85156,52.94286,-782.82857,-620.97143
11.85938,52.94286,-782.82857,-618.02857
11.86719,52.94286,-782.82857,-620.97143
11.87500,52.94286,-785.77143,-620.97143
11.88281,52.94286,-785.77143,-620.97143
11.89062,52.94286,-785.77143,-618.02857
11.89844,52.94286,-785.77143,-618.02857
11.90625,52.94286,-785.77143,-620.97143
11.91406,52.94286,-785.77143,-620.97143
11.92188,55.88571,-785.77143,-620.97143
11.92969,55.88571,-785.77143,-618.02857
11.93750,55.88571,-785.77143,-620.97143
11.94531,55.88571,-785.77143,-620.97143
11.95312,52.94286,-785.77143,-618.02857
11.96094,52.94286,-785.77143,-618.02857
11.96875,52.94286,-785.77143,-618.02857
11.97656,50.00000,-788.71429,-618.02857
11.98438,50.00000,-788.71429,-618.02857
11.99219,50.00000,-785.77143,-620.97143
12.00000,52.94286,-785.77143,-620.97143
12.00781,52.94286,-782.82857,-623.91429
12.01562,52.94286,-782.82857,-623.91429
12.02344,55.88571,-782.82857,-623.91429
12.03125,55.88571,-779.88571,-623.91429
12.03906,55.88571,-779.88571,-623.91429
12.04688,52.94286,-782.82857,-620.97143
12.05469,52.94286,-782.82857,-618.02857
12.06250,52.94286,-785.77143,-618.02857
12.07031,52.94286,-785.77143,-618.02857
12.07812,50.00000,-788.71429,-618.02857
12.08594,50.00000,-788.71429,-618.02857
12.09375,52.94286,-788.71429,-618.02857
12.10156,52.94286,-785.77143,-618.02857
12.10938,52.94286,-785.77143,-618.02857
12.11719,52.94286,-785.77143,-618.02857
12.12500,52.94286,-785.77143,-620.97143
12.13281,52.94286,-782.82857,-618.02857
12.14062,52.94286,-782.82857,-620.97143
12.14844,52.94286,-782.82857,-620.97143
12.15625,52.94286,-785.77143,-620.97143
12.16406,52.94286,-785.77143,-620.97143
12.17188,52.94286,-785.77143,-618.02857
12.17969,52.94286,-785.77143,-618.02857
12.18750,52.94286,-785.77143,-618.02857
12.19531,52.94286,-785.77143,-620.97143
12.20312,52.94286,-785.77143,-620.97143
12.21094,55.88571,-782.82857,-620.97143
12.21875,55.88571,-782.82857,-620.97143
12.22656,55.88571,-782.82857,-620.97143
12.23438,52.94286,-782.82857,-620.97143
12.24219,52.94286,-785.77143,-618.02857
12.25000,52.94286,-785.77143,-618.02857
12.25781,50.00000,-785.77143,-618.02857
12.26562,52.94286,-785.77143,-618.02857
12.27344,52.94286,-785.77143,-618.02857
12.28125,52.94286,-785.77143,-620.97143
12.28906,52.94286,-782.82857,-620.97143
12.29688,52.94286,-782.82857,-620.97143
12.30469,52.94286,-782.82857,-620.97143
12.31250,52.94286,-782.82857,-623.91429
12.32031,52.94286,-782.82857,-620.97143
12.32812,52.94286,-785.77143,-620.97143
12.33594,52.94286,-785.77143,-620.97143
12.34375,55.88571,-785.77143,-620.97143
12.35156,52.94286,-785.77143,-620.97143
12.35938,52.94286,-785.77143,-620.97143
12.36719,52.94286,-785.77143,-620.97143
12.37500,52.94286,-785.77143,-620.97143
12.38281,52.94286,-785.77143,-620.97143
12.39062,52.94286,-785.77143,-620.97143
12.39844,52.94286,-785.77143,-620.97143
12.40625,52.94286,-785.77143,-620.97143
12.41406,52.94286,-785.77143,-620.97143
12.42188,52.94286,-785.77143,-620.97143
12.42969,52.94286,-785.77143,-618.02857
12.43750,52.94286,-785.77143,-618.02857
12.44531,52.94286,-785.77143,-618.02857
12.45312,52.94286,-785.77143,-618.02857
12.46094,52.94286,-785.77143,-618.02857
12.46875,52.94286,-785.77143,-618.02857
12.47656,52.94286,-785.77143,-618.02857
12.48438,52.94286,-785.77143,-618.02857
12.49219,52.94286,-785.77143,-618.02857
12.50000,52.94286,-785.77143,-620.97143
12.50781,52.94286,-782.82857,-620.97143
12.51562,52.94286,-782.82857,-620.97143
12.52344,52.94286,-785.77143,-620.97143
12.53125,52.94286,-785.77143,-620.97143
12.53906,52.94286,-785.77143,-620.97143
12.54688,52.94286,-785.77143,-620.97143
12.55469,52.94286,-785.77143,-620.97143
12.56250,52.94286,-785.77143,-620.97143
12.57031,52.94286,-785.77143,-620.97143
12.57812,52.94286,-785.77143,-618.02857
12.58594,52.94286,-785.77143,-618.02857
12.59375,52.94286,-785.77143,-620.97143
12.60156,55.88571,-785.77143,-620.97143
12.60938,55.88571,-785.77143,-620.97143
12.61719,55.88571,-785.77143,-620.97143
12.62500,55.88571,-785.77143,-620.97143
12.63281,52.94286,-785.77143,-618.02857
12.64062,52.94286,-782.82857,-620.97143
12.64844,52.94286,-782.82857,-618.02857
12.65625,52.94286,-782.82857,-620.97143
12.66406,52.94286,-785.77143,-618.02857
12.67188,52.94286,-785.77143,-620.97143
12.67969,52.94286,-785.77143,-618.02857
12.68750,52.94286,-785.77143,-620.97143
12.69531,52.94286,-785.77143,-620.97143
12.70312,52.94286,-785.77143,-620.97143
12.71094,52.94286,-785.77143,-618.02857
12.71875,55.88571,-785.77143,-618.02857
12.72656,55.88571,-785.77143,-620.97143
12.73438,55.88571,-785.77143,-620.97143
12.74219,55.88571,-785.77143,-620.97143
12.75000,52.94286,-785.77143,-618.02857
12.75781,52.94286,-785.77143,-618.02857
12.76562,52.94286,-788.71429,-618.02857
12.77344,52.94286,-788.71429,-618.02857
12.78125,50.00000,-785.77143,-618.02857
12.78906,50.00000,-785.77143,-620.97143
12.79688,52.94286,-785.77143,-620.97143
12.80469,52.94286,-785.77143,-620.97143
12.81250,52.94286,-782.82857,-620.97143
12.82031,55.88571,-782.82857,-623.91429
12.82812,55.88571,-779.88571,-623.91429
12.83594,55.88571,-782.82857,-620.97143
12.84375,55.88571,-782.82857,-620.97143
12.85156,55.88571,-785.77143,-620.97143
12.85938,52.94286,-785.77143,-618.02857
12.86719,52.94286,-788.71429,-618.02857
12.87500,52.94286,-785.77143,-618.02857
12.88281,52.94286,-788.71429,-615.08571
12.89062,52.94286,-785.77143,-615.08571
12.89844,52.94286,-785.77143,-618.02857
12.90625,52.94286,-785.77143,-618.02857
12.91406,52.94286,-785.77143,-618.02857
12.92188,52.94286,-782.82857,-620.97143
12.92969,55.88571,-782.82857,-620.97143
12.93750,55.88571,-785.77143,-620.97143
12.94531,55.88571,-785.77143,-620.97143
12.95312,55.88571,-785.77143,-620.97143
12.96094,52.94286,-785.77143,-620.97143
12.96875,52.94286,-785.77143,-620.97143
12.97656,52.94286,-785.77143,-618.02857
12.98438,52.94286,-785.77143,-618.02857
12.99219,52.94286,-785.77143,-620.97143
13.00000,55.88571,-785.77143,-620.97143
13.00781,55.88571,-785.77143,-620.97143
13.01562,55.88571,-782.82857,-620.97143
13.02344,55.88571,-782.82857,-620.97143
13.03125,55.88571,-782.82857,-620.97143
13.03906,52.94286,-785.77143,-618.02857
13.04688,52.94286,-785.77143,-618.02857
13.05469,50.00000,-785.77143,-618.02857
13.06250,50.00000,-785.77143,-618.02857
13.07031,52.94286,-785.77143,-618.02857
13.07812,52.94286,-785.77143,-618.02857
13.08594,52.94286,-782.82857,-618.02857
13.09375,52.94286,-782.82857,-620.97143
13.10156,55.88571,-782.82857,-620.97143
13.10938,55.88571,-782.82857,-620.97143
13.11719,55.88571,-782.82857,-623.91429
13.12500,55.88571,-785.77143,-623.91429
13.13281,55.88571,-785.77143,-620.97143
13.14062,55.88571,-785.77143,-620.97143
13.14844,55.88571,-785.77143,-620.97143
13.15625,55.88571,-785.77143,-618.02857
13.16406,52.94286,-785.77143,-618.02857
13.17188,52.94286,-785.77143,-618.02857
13.17969,52.94286,-785.77143,-620.97143
13.18750,52.94286,-785.77143,-618.02857
13.19531,52.94286,-782.82857,-618.02857
13.20312,52.94286,-782.82857,-618.02857
13.21094,52.94286,-785.77143,-620.97143
13.21875,52.94286,-785.77143,-620.97143
13.22656,52.94286,-785.77143,-620.97143
13.23438,52.94286,-785.77143,-620.97143
13.24219,52.94286,-785.77143,-620.97143
13.25000,52.94286,-785.77143,-618.02857
13.25781,52.94286,-785.77143,-618.02857
13.26562,52.94286,-785.77143,-618.02857
13.27344,52.94286,-785.77143,-618.02857
13.28125,52.94286,-785.77143,-618.02857
13.28906,52.94286,-785.77143,-618.02857
13.29688,52.94286,-785.77143,-620.97143
13.30469,52.94286,-785.77143,-620.97143
13.31250,52.94286,-785.77143,-620.97143
13.32031,52.94286,-785.77143,-620.97143
13.32812,52.94286,-785.77143,-620.97143
13.33594,52.94286,-785.77143,-618.02857
13.34375,52.94286,-785.77143,-618.02857
13.35156,52.94286,-785.77143,-618.02857
13.35938,52.94286,-785.77143,-620.97143
13.36719,52.94286,-785.77143,-618.02857
13.37500,52.94286,-785.77143,-620.97143
13.38281,55.88571,-785.77143,-620.97143
13.39062,55.88571,-785.77143,-620.97143
13.39844,55.88571,-785.77143,-620.97143
13.40625,52.94286,-785.77143,-620.97143
13.41406,52.94286,-785.77143,-620.97143
13.42188,52.94286,-785.77143,-618.02857
13.42969,52.94286,-782.82857,-620.97143
13.43750,52.94286,-782.82857,-618.02857
13.44531,52.94286,-782.82857,-618.02857
13.45312,52.94286,-785.77143,-618.02857
13.46094,52.94286,-785.77143,-618.02857
13.46875,52.94286,-785.77143,-618.02857
13.47656,52.94286,-785.77143,-618.02857
13.48438,52.94286,-785.77143,-620.97143
13.49219,55.88571,-785.77143,-618.02857
13.50000,55.88571,-785.77143,-618.02857
13.50781,55.88571,-785.77143,-618.02857
13.51562,55.88571,-785.77143,-618.02857
13.52344,55.88571,-785.77143,-618.02857
13.53125,52.94286,-785.77143,-618.02857
13.53906,52.94286,-785.77143,-618.02857
13.54688,52.94286,-788.71429,-618.02857
13.55469,52.94286,-788.71429,-618.02857
13.56250,52.94286,-788.71429,-618.02857
13.57031,52.94286,-785.77143,-620.97143
13.57812,52.94286,-785.77143,-620.97143
13.58594,52.94286,-785.77143,-620.97143
13.59375,55.88571,-782.82857,-623.91429
13.60156,55.88571,-782.82857,-623.91429
13.60938,55.88571,-782.82857,-623.91429
13.61719,55.88571,-782.82857,-623.91429
13.62500,55.88571,-782.82857,-623.91429
13.63281,55.88571,-785.77143,-620.97143
13.64062,52.94286,-785.77143,-618.02857
13.64844,52.94286,-788.71429,-618.02857
13.65625,52.94286,-788.71429,-615.08571
13.66406,52.94286,-788.71429,-615.08571
13.67188,52.94286,-785.77143,-615.08571
13.67969,52.94286,-785.77143,-618.02857
13.68750,52.94286,-785.77143,-618.02857
13.69531,52.94286,-785.77143,-615.08571
13.70312,55.88571,-782.82857,-618.02857
13.71094,55.88571,-782.82857,-620.97143
13.71875,52.94286,-782.82857,-620.97143
13.72656,52.94286,-785.77143,-620.97143
13.73438,52.94286,-785.77143,-620.97143
13.74219,52.94286,-785.77143,-620.97143
13.75000,52.94286,-785.77143,-618.02857
13.75781,52.94286,-788.71429,-620.97143
13.76562,52.94286,-785.77143,-620.97143
13.77344,52.94286,-785.77143,-620.97143
13.78125,52.94286,-785.77143,-618.02857
13.78906,52.94286,-785.77143,-620.97143
13.79688,52.94286,-782.82857,-620.97143
13.80469,55.88571,-782.82857,-620.97143
13.81250,55.88571,-782.82857,-618.02857
13.82031,52.94286,-785.77143,-618.02857
13.82812,52.94286,-785.77143,-618.02857
13.83594,52.94286,-785.77143,-618.02857
13.84375,52.94286,-785.77143,-618.02857
13.85156,50.00000,-785.77143,-618.02857
13.85938,52.94286,-785.77143,-618.02857
13.86719,52.94286,-785.77143,-620.97143
13.87500,52.94286,-782.82857,-618.02857
13.88281,52.94286,-785.77143,-620.97143
13.89062,52.94286,-782.82857,-620.97143
13.89844,52.94286,-782.82857,-620.97143
13.90625,55.88571,-785.77143,-620.97143
13.91406,55.88571,-785.77143,-620.97143
13.92188,52.94286,-785.77143,-620.97143
13.92969,55.88571,-785.77143,-618.02857
13.93750,55.88571,-785.77143,-618.02857
13.94531,55.88571,-785.77143,-618.02857
13.95312,52.94286,-785.77143,-618.02857
13.96094,52.94286,-785.77143,-618.02857
13.96875,52.94286,-785.77143,-620.97143
13.97656,52.94286,-785.77143,-620.97143
13.98438,52.94286,-785.77143,-618.02857
13.99219,52.94286,-785.77143,-618.02857
14.00000,52.94286,-785.77143,-618.02857
14.00781,52.94286,-785.77143,-618.02857
14.01562,52.94286,-785.77143,-618.02857
14.02344,52.94286,-785.77143,-618.02857
14.03125,52.94286,-785.77143,-618.02857
14.03906,52.94286,-785.77143,-618.02857
14.04688,52.94286,-785.77143,-618.02857
14.05469,52.94286,-785.77143,-620.97143
14.06250,52.94286,-785.77143,-620.97143
14.07031,52.94286,-785.77143,-618.02857
14.07812,52.94286,-785.77143,-618.02857
14.08594,52.94286,-785.77143,-618.02857
14.09375,52.94286,-785.77143,-618.02857
14.10156,52.94286,-785.77143,-618.02857
14.10938,52.94286,-785.77143,-618.02857
14.11719,52.94286,-785.77143,-618.02857
14.12500,52.94286,-785.77143,-618.02857
14.13281,52.94286,-785.77143,-620.97143
14.14062,52.94286,-785.77143,-620.97143
14.14844,52.94286,-785.77143,-618.02857
14.15625,52.94286,-785.77143,-620.97143
14.16406,52.94286,-785.77143,-620.97143
14.17188,55.88571,-785.77143,-620.97143
14.17969,55.88571,-785.77143,-620.97143
14.18750,55.88571,-785.77143,-620.97143
14.19531,52.94286,-785.77143,-620.97143
14.20312,52.94286,-785.77143,-620.97143
14.21094,52.94286,-785.77143,-620.97143
14.21875,52.94286,-785.77143,-618.02857
14.22656,52.94286,-785.77143,-618.02857
14.23438,52.94286,-785.77143,-618.02857
14.24219,52.94286,-785.77143,-618.02857
14.25000,52.94286,-785.77143,-618.02857
14.25781,52.94286,-785.77143,-620.97143
14.26562,52.94286,-785.77143,-620.97143
14.27344,52.94286,-785.77143,-620.97143
14.28125,52.94286,-785.77143,-618.02857
14.28906,55.88571,-785.77143,-618.02857
14.29688,55.88571,-785.77143,-620.97143
14.30469,52.94286,-785.77143,-618.02857
14.31250,52.94286,-785.77143,-618.02857
14.32031,52.94286,-785.77143,-618.02857
14.32812,52.94286,-788.71429,-615.08571
14.33594,52.94286,-788.71429,-615.08571
14.34375,50.00000,-788.71429,-618.02857
14.35156,50.00000,-788.71429,-618.02857
14.35938,50.00000,-785.77143,-618.02857
14.36719,52.94286,-785.77143,-620.97143
14.37500,55.88571,-782.82857,-623.91429
14.38281,55.88571,-782.82857,-623.91429
14.39062,55.88571,-782.82857,-623.91429
14.39844,55.88571,-782.82857,-623.91429
14.40625,55.88571,-782.82857,-623.91429
14.41406,55.88571,-782.82857,-620.97143
14.42188,52.94286,-785.77143,-618.02857
14.42969,52.94286,-785.77143,-618.02857
14.43750,50.00000,-788.71429,-618.02857
14.44531,50.00000,-788.71429,-618.02857
14.45312,50.00000,-788.71429,-615.08571
14.46094,52.94286,-788.71429,-615.08571
14.46875,52.94286,-785.77143,-618.02857
14.47656,52.94286,-785.77143,-618.02857
14.48438,52.94286,-785.77143,-618.02857
14.49219,52.94286,-785.77143,-620.97143
14.50000,52.94286,-785.77143,-620.97143
14.50781,52.94286,-785.77143,-620.97143
14.51562,52.94286,-785.77143,-620.97143
14.52344,52.94286,-785.77143,-620.97143
14.53125,52.94286,-785.77143,-618.02857
14.53906,52.94286,-785.77143,-618.02857
14.54688,52.94286,-785.77143,-618.02857
14.55469,52.94286,-785.77143,-618.02857
14.56250,52.94286,-785.77143,-618.02857
14.57031,52.94286,-785.77143,-620.97143
14.57812,52.94286,-782.82857,-623.91429
14.58594,55.88571,-782.82857,-620.97143
14.59375,52.94286,-785.77143,-620.97143
14.60156,52.94286,-785.77143,-618.02857
14.60938,52.94286,-785.77143,-618.02857
14.61719,52.94286,-785.77143,-618.02857
14.62500,50.00000,-785.77143,-618.02857
14.63281,52.94286,-785.77143,-618.02857
14.64062,52.94286,-785.77143,-618.02857
14.64844,52.94286,-785.77143,-618.02857
14.65625,52.94286,-782.82857,-618.02857
14.66406,52.94286,-782.82857,-620.97143
14.67188,52.94286,-782.82857,-620.97143
14.67969,52.94286,-782.82857,-623.91429
14.68750,52.94286,-782.82857,-620.97143
14.69531,52.94286,-785.77143,-623.91429
14.70312,52.94286,-785.77143,-620.97143
14.71094,52.94286,-785.77143,-620.97143
14.71875,52.94286,-785.77143,-620.97143
14.72656,52.94286,-785.77143,-620.97143
14.73438,52.94286,-785.77143,-618.02857
14.74219,52.94286,-785.77143,-618.02857
14.75000,52.94286,-785.77143,-618.02857
14.75781,52.94286,-785.77143,-618.02857
14.76562,52.94286,-785.77143,-618.02857
14.77344,52.94286,-785.77143,-618.02857
14.78125,52.94286,-785.77143,-620.97143
14.78906,52.94286,-785.77143,-618.02857
14.79688,52.94286,-785.77143,-618.02857
14.80469,52.94286,-785.77143,-618.02857
14.81250,52.94286,-785.77143,-618.02857
14.82031,52.94286,-785.77143,-618.02857
14.82812,52.94286,-785.77143,-618.02857
14.83594,52.94286,-785.77143,-618.02857
14.84375,52.94286,-785.77143,-620.97143
14.85156,52.94286,-785.77143,-620.97143
14.85938,52.94286,-785.77143,-620.97143
14.86719,52.94286,-785.77143,-618.02857
14.87500,52.94286,-785.77143,-618.02857
14.88281,52.94286,-785.77143,-620.97143
14.89062,52.94286,-785.77143,-620.97143
14.89844,52.94286,-785.77143,-620.97143
14.90625,52.94286,-782.82857,-618.02857
14.91406,52.94286,-785.77143,-618.02857
14.92188,52.94286,-785.77143,-618.02857
14.92969,52.94286,-785.77143,-618.02857
14.93750,52.94286,-785.77143,-618.02857
14.94531,52.94286,-785.77143,-618.02857
14.95312,52.94286,-785.77143,-618.02857
14.96094,55.88571,-785.77143,-620.97143
14.96875,55.88571,-785.77143,-620.97143
14.97656,52.94286,-785.77143,-620.97143
14.98438,52.94286,-785.77143,-620.97143
14.99219,52.94286,-785.77143,-618.02857
15.00000,52.94286,-785.77143,-618.02857
15.00781,52.94286,-785.77143,-618.02857
15.01562,52.94286,-785.77143,-618.02857
15.02344,52.94286,-785.77143,-618.02857
15.03125,52.94286,-785.77143,-618.02857
15.03906,52.94286,-785.77143,-618.02857
15.04688,52.94286,-785.77143,-620.97143
15.05469,52.94286,-785.77143,-620.97143
15.06250,52.94286,-785.77143,-620.97143
15.07031,52.94286,-785.77143,-620.97143
15.07812,55.88571,-785.77143,-620.97143
15.08594,55.88571,-785.77143,-618.02857
15.09375,52.94286,-785.77143,-618.02857
15.10156,52.94286,-785.77143,-618.02857
15.10938,52.94286,-785.77143,-618.02857
15.11719,52.94286,-785.77143,-618.02857
15.12500,52.94286,-788.71429,-615.08571
15.13281,50.00000,-788.71429,-618.02857
15.14062,50.00000,-788.71429,-618.02857
15.14844,50.00000,-785.77143,-620.97143
15.15625,52.94286,-785.77143,-620.97143
15.16406,52.94286,-782.82857,-620.97143
15.17188,55.88571,-782.82857,-620.97143
15.17969,55.88571,-782.82857,-623.91429
15.18750,55.88571,-782.82857,-623.91429
15.19531,55.88571,-782.82857,-623.91429
15.20312,52.94286,-782.82857,-620.97143
15.21094,52.94286,-785.77143,-618.02857
15.21875,52.94286,-785.77143,-618.02857
15.22656,52.94286,-788.71429,-618.02857
15.23438,50.00000,-788.71429,-615.08571
15.24219,50.00000,-788.71429,-615.08571
15.25000,52.94286,-785.77143,-615.08571
15.25781,52.94286,-785.77143,-618.02857
15.26562,52.94286,-785.77143,-618.02857
15.27344,52.94286,-785.77143,-618.02857
15.28125,52.94286,-785.77143,-620.97143
15.28906,52.94286,-782.82857,-620.97143
15.29688,52.94286,-782.82857,-620.97143
15.30469,52.94286,-782.82857,-623.91429
15.31250,52.94286,-785.77143,-620.97143
15.32031,52.94286,-785.77143,-620.97143
15.32812,52.94286,-785.77143,-618.02857
15.33594,52.94286,-785.77143,-618.02857
15.34375,52.94286,-785.77143,-618.02857
15.35156,52.94286,-785.77143,-620.97143
15.35938,52.94286,-785.77143,-620.97143
15.36719,55.88571,-782.82857,-618.02857
15.37500,55.88571,-782.82857,-620.97143
15.38281,55.88571,-782.82857,-620.97143
15.39062,52.94286,-785.77143,-620.97143
15.39844,52.94286,-785.77143,-618.02857
15.40625,52.94286,-785.77143,-618.02857
15.41406,52.94286,-785.77143,-618.02857
15.42188,52.94286,-785.77143,-618.02857
15.42969,52.94286,-785.77143,-615.08571
15.43750,52.94286,-785.77143,-618.02857
15.44531,52.94286,-785.77143,-618.02857
15.45312,52.94286,-785.77143,-618.02857
15.46094,52.94286,-782.82857,-620.97143
15.46875,52.94286,-782.82857,-620.97143
15.47656,52.94286,-785.77143,-620.97143
15.48438,52.94286,-785.77143,-620.97143
15.49219,52.94286,-785.77143,-620.97143
15.50000,52.94286,-785.77143,-620.97143
15.50781,52.94286,-785.77143,-620.97143
15.51562,52.94286,-785.77143,-620.97143
15.52344,52.94286,-785.77143,-618.02857
15.53125,52.94286,-785.77143,-618.02857
15.53906,52.94286,-785.77143,-618.02857
15.54688,52.94286,-785.77143,-618.02857
15.55469,52.94286,-785.77143,-620.97143
15.56250,52.94286,-785.77143,-620.97143
15.57031,52.94286,-785.77143,-620.97143
15.57812,52.94286,-785.77143,-620.97143
15.58594,52.94286,-785.77143,-620.97143
15.59375,52.94286,-785.77143,-620.97143
15.60156,52.94286,-785.77143,-620.97143
15.60938,52.94286,-785.77143,-620.97143
15.61719,52.94286,-785.77143,-620.97143
15.62500,52.94286,-785.77143,-618.02857
15.63281,52.94286,-785.77143,-618.02857
15.64062,52.94286,-785.77143,-618.02857
15.64844,52.94286,-782.82857,-620.97143
15.65625,52.94286,-782.82857,-620.97143
15.66406,52.94286,-782.82857,-620.97143
15.67188,52.94286,-782.82857,-620.97143
15.67969,52.94286,-782.82857,-620.97143
15.68750,52.94286,-782.82857,-620.97143
15.69531,52.94286,-785.77143,-620.97143
15.70312,52.94286,-785.77143,-620.97143
15.71094,52.94286,-785.77143,-618.02857
15.71875,52.94286,-785.77143,-618.02857
15.72656,52.94286,-785.77143,-618.02857
15.73438,52.94286,-785.77143,-620.97143
15.74219,52.94286,-785.77143,-618.02857
15.75000,52.94286,-785.77143,-618.02857
15.75781,52.94286,-785.77143,-618.02857
15.76562,52.94286,-785.77143,-620.97143
15.77344,52.94286,-785.77143,-623.91429
15.78125,52.94286,-785.77143,-623.91429
15.78906,52.94286,-785.77143,-623.91429
15.79688,52.94286,-785.77143,-623.91429
15.80469,52.94286,-785.77143,-620.97143
15.81250,52.94286,-785.77143,-618.02857
15.82031,52.94286,-785.77143,-618.02857
15.82812,52.94286,-785.77143,-618.02857
15.83594,52.94286,-785.77143,-618.02857
15.84375,52.94286,-785.77143,-618.02857
15.85156,52.94286,-785.77143,-618.02857
15.85938,52.94286,-785.77143,-620.97143
15.86719,52.94286,-785.77143,-620.97143
15.87500,52.94286,-785.77143,-623.91429
15.88281,55.88571,-785.77143,-623.91429
15.89062,55.88571,-785.77143,-620.97143
15.89844,55.88571,-785.77143,-620.97143
15.90625,55.88571,-785.77143,-618.02857
15.91406,52.94286,-785.77143,-618.02857
15.92188,52.94286,-785.77143,-618.02857
15.92969,52.94286,-785.77143,-618.02857
15.93750,52.94286,-788.71429,-618.02857
15.94531,50.00000,-788.71429,-618.02857
15.95312,50.00000,-788.71429,-620.97143
15.96094,50.00000,-785.77143,-620.97143
15.96875,52.94286,-785.77143,-620.97143
15.97656,52.94286,-782.82857,-623.91429
15.98438,55.88571,-779.88571,-623.91429
15.99219,55.88571,-779.88571,-623.91429
16.00000,55.88571,-779.88571,-623.91429
16.00781,55.88571,-782.82857,-623.91429
16.01562,55.88571,-782.82857,-623.91429
16.02344,52.94286,-785.77143,-620.97143
16.03125,52.94286,-785.77143,-618.02857
16.03906,52.94286,-785.77143,-618.02857
16.04688,52.94286,-785.77143,-615.08571
16.05469,52.94286,-785.77143,-615.08571
16.06250,52.94286,-785.77143,-618.02857
16.07031,52.94286,-785.77143,-618.02857
16.07812,52.94286,-782.82857,-618.02857
16.08594,52.94286,-782.82857,-620.97143
16.09375,52.94286,-782.82857,-620.97143
16.10156,52.94286,-782.82857,-620.97143
16.10938,55.88571,-785.77143,-620.97143
16.11719,55.88571,-785.77143,-620.97143
16.12500,52.94286,-785.77143,-620.97143
16.13281,52.94286,-785.77143,-618.02857
16.14062,52.94286,-785.77143,-620.97143
16.14844,52.94286,-785.77143,-620.97143
16.15625,52.94286,-785.77143,-620.97143
16.16406,52.94286,-785.77143,-620.97143
16.17188,55.88571,-785.77143,-620.97143
16.17969,55.88571,-782.82857,-620.97143
16.18750,55.88571,-782.82857,-620.97143
16.19531,55.88571,-782.82857,-618.02857
16.20312,52.94286,-785.77143,-618.02857
16.21094,52.94286,-785.77143,-618.02857
16.21875,52.94286,-785.77143,-618.02857
16.22656,52.94286,-785.77143,-618.02857
16.23438,52.94286,-785.77143,-618.02857
16.24219,52.94286,-785.77143,-620.97143
16.25000,52.94286,-782.82857,-620.97143
16.25781,52.94286,-782.82857,-620.97143
16.26562,52.94286,-782.82857,-620.97143
16.27344,52.94286,-782.82857,-623.91429
16.28125,55.88571,-782.82857,-623.91429
16.28906,52.94286,-782.82857,-620.97143
16.29688,52.94286,-782.82857,-620.97143
16.30469,52.94286,-785.77143,-620.97143
16.31250,52.94286,-785.77143,-620.97143
16.32031,52.94286,-785.77143,-618.02857
16.32812,52.94286,-785.77143,-620.97143
16.33594,52.94286,-785.77143,-620.97143
16.34375,52.94286,-785.77143,-620.97143
16.35156,52.94286,-785.77143,-618.02857
16.35938,52.94286,-782.82857,-620.97143
16.36719,52.94286,-782.82857,-618.02857
16.37500,52.94286,-782.82857,-618.02857
16.38281,52.94286,-785.77143,-618.02857
16.39062,52.94286,-785.77143,-620.97143
16.39844,52.94286,-785.77143,-620.97143
16.40625,52.94286,-785.77143,-620.97143
16.41406,52.94286,-785.77143,-618.02857
16.42188,52.94286,-785.77143,-620.97143
16.42969,52.94286,-785.77143,-620.97143
16.43750,52.94286,-785.77143,-620.97143
16.44531,52.94286,-785.77143,-620.97143
16.45312,52.94286,-785.77143,-620.97143
16.46094,52.94286,-782.82857,-620.97143
16.46875,52.94286,-785.77143,-618.02857
16.47656,52.94286,-785.77143,-620.97143
16.48438,52.94286,-785.77143,-620.97143
16.49219,52.94286,-785.77143,-620.97143
16.50000,52.94286,-785.77143,-618.02857
16.50781,52.94286,-785.77143,-618.02857
16.51562,52.94286,-785.77143,-620.97143
16.52344,52.94286,-785.77143,-620.97143
16.53125,52.94286,-782.82857,-620.97143
16.53906,52.94286,-782.82857,-620.97143
16.54688,52.94286,-785.77143,-618.02857
16.55469,52.94286,-785.77143,-618.02857
16.56250,52.94286,-785.77143,-620.97143
16.57031,52.94286,-785.77143,-618.02857
16.57812,55.88571,-785.77143,-620.97143
16.58594,52.94286,-785.77143,-620.97143
16.59375,52.94286,-785.77143,-620.97143
16.60156,52.94286,-785.77143,-620.97143
16.60938,52.94286,-785.77143,-620.97143
16.61719,52.94286,-782.82857,-620.97143
16.62500,52.94286,-782.82857,-620.97143
16.63281,52.94286,-782.82857,-620.97143
16.64062,52.94286,-782.82857,-618.02857
16.64844,52.94286,-785.77143,-618.02857
16.65625,52.94286,-785.77143,-618.02857
16.66406,52.94286,-785.77143,-618.02857
16.67188,52.94286,-785.77143,-620.97143
16.67969,52.94286,-785.77143,-620.97143
16.68750,55.88571,-785.77143,-618.02857
16.69531,55.88571,-785.77143,-618.02857
16.70312,55.88571,-785.77143,-618.02857
16.71094,55.88571,-785.77143,-618.02857
16.71875,52.94286,-785.77143,-618.02857
16.72656,52.94286,-785.77143,-620.97143
16.73438,52.94286,-785.77143,-620.97143
16.74219,52.94286,-785.77143,-620.97143
16.75000,52.94286,-785.77143,-618.02857
16.75781,52.94286,-785.77143,-620.97143
16.76562,52.94286,-785.77143,-620.97143
16.77344,52.94286,-785.77143,-620.97143
16.78125,52.94286,-782.82857,-620.97143
16.78906,55.88571,-782.82857,-623.91429
16.79688,55.88571,-782.82857,-623.91429
16.80469,55.88571,-782.82857,-623.91429
16.81250,55.88571,-782.82857,-620.97143
16.82031,55.88571,-785.77143,-620.97143
16.82812,52.94286,-785.77143,-620.97143
16.83594,52.94286,-785.77143,-618.02857
16.84375,52.94286,-788.71429,-618.02857
16.85156,52.94286,-788.71429,-615.08571
16.85938,52.94286,-785.77143,-615.08571
16.86719,52.94286,-785.77143,-618.02857
16.87500,52.94286,-785.77143,-618.02857
16.88281,52.94286,-785.77143,-618.02857
16.89062,52.94286,-782.82857,-618.02857
16.89844,52.94286,-782.82857,-618.02857
16.90625,55.88571,-782.82857,-620.97143
16.91406,55.88571,-785.77143,-620.97143
16.92188,55.88571,-785.77143,-620.97143
16.92969,55.88571,-785.77143,-620.97143
16.93750,52.94286,-785.77143,-620.97143
16.94531,52.94286,-785.77143,-620.97143
16.95312,52.94286,-785.77143,-620.97143
16.96094,52.94286,-785.77143,-618.02857
16.96875,52.94286,-785.77143,-620.97143
16.97656,55.88571,-785.77143,-620.97143
16.98438,55.88571,-782.82857,-620.97143
16.99219,55.88571,-782.82857,-620.97143
17.00000,55.88571,-782.82857,-620.97143
17.00781,55.88571,-782.82857,-620.97143
17.01562,52.94286,-785.77143,-618.02857
17.02344,52.94286,-785.77143,-618.02857
17.03125,52.94286,-785.77143,-618.02857
17.03906,50.00000,-785.77143,-618.02857
17.04688,52.94286,-785.77143,-618.02857
17.05469,52.94286,-785.77143,-620.97143
17.06250,52.94286,-782.82857,-623.91429
17.07031,52.94286,-782.82857,-620.97143
17.07812,52.94286,-782.82857,-623.91429
17.08594,55.88571,-782.82857,-623.91429
17.09375,55.88571,-782.82857,-623.91429
17.10156,55.88571,-785.77143,-620.97143
17.10938,55.88571,-785.77143,-620.97143
17.11719,52.94286,-785.77143,-620.97143
17.12500,52.94286,-788.71429,-620.97143
17.13281,52.94286,-788.71429,-618.02857
17.14062,52.94286,-785.77143,-618.02857
17.14844,52.94286,-785.77143,-618.02857
17.15625,52.94286,-785.77143,-618.02857
17.16406,52.94286,-785.77143,-618.02857
17.17188,52.94286,-782.82857,-618.02857
17.17969,52.94286,-782.82857,-620.97143
17.18750,52.94286,-785.77143,-620.97143
17.19531,55.88571,-785.77143,-620.97143
17.20312,55.88571,-785.77143,-620.97143
17.21094,55.88571,-785.77143,-620.97143
17.21875,52.94286,-785.77143,-620.97143
17.22656,52.94286,-785.77143,-618.02857
17.23438,55.88571,-785.77143,-618.02857
17.24219,52.94286,-785.77143,-618.02857
17.25000,52.94286,-785.77143,-618.02857
17.25781,52.94286,-785.77143,-618.02857
17.26562,52.94286,-782.82857,-620.97143
17.27344,52.94286,-782.82857,-620.97143
17.28125,52.94286,-785.77143,-620.97143
17.28906,52.94286,-785.77143,-620.97143
17.29688,52.94286,-785.77143,-620.97143
17.30469,52.94286,-785.77143,-620.97143
17.31250,52.94286,-785.77143,-620.97143
17.32031,52.94286,-785.77143,-618.02857
17.32812,52.94286,-785.77143,-618.02857
17.33594,52.94286,-785.77143,-618.02857
17.34375,52.94286,-785.77143,-618.02857
17.35156,52.94286,-785.77143,-618.02857
17.35938,52.94286,-785.77143,-620.97143
17.36719,52.94286,-785.77143,-620.97143
17.37500,52.94286,-785.77143,-620.97143
17.38281,52.94286,-785.77143,-620.97143
17.39062,52.94286,-785.77143,-620.97143
17.39844,52.94286,-785.77143,-620.97143
17.40625,52.94286,-785.77143,-620.97143
17.41406,52.94286,-782.82857,-618.02857
17.42188,52.94286,-782.82857,-618.02857
17.42969,52.94286,-785.77143,-618.02857
17.43750,52.94286,-785.77143,-618.02857
17.44531,52.94286,-785.77143,-618.02857
17.45312,52.94286,-785.77143,-618.02857
17.46094,52.94286,-785.77143,-620.97143
17.46875,55.88571,-785.77143,-620.97143
17.47656,55.88571,-785.77143,-618.02857
17.48438,55.88571,-785.77143,-618.02857
17.49219,55.88571,-785.77143,-620.97143
17.50000,55.88571,-785.77143,-618.02857
17.50781,52.94286,-785.77143,-618.02857
17.51562,52.94286,-785.77143,-618.02857
17.52344,52.94286,-788.71429,-618.02857
17.53125,52.94286,-788.71429,-618.02857
17.53906,52.94286,-788.71429,-618.02857
17.54688,52.94286,-785.77143,-618.02857
17.55469,52.94286,-785.77143,-620.97143
17.56250,52.94286,-785.77143,-620.97143
17.57031,52.94286,-782.82857,-620.97143
17.57812,55.88571,-782.82857,-623.91429
17.58594,55.88571,-782.82857,-623.91429
17.59375,55.88571,-782.82857,-620.97143
17.60156,55.88571,-782.82857,-620.97143
17.60938,52.94286,-785.77143,-620.97143
17.61719,52.94286,-785.77143,-620.97143
17.62500,52.94286,-785.77143,-620.97143
17.63281,52.94286,-788.71429,-618.02857
17.64062,50.00000,-788.71429,-618.02857
17.64844,50.00000,-785.77143,-618.02857
17.65625,52.94286,-785.77143,-618.02857
17.66406,52.94286,-785.77143,-618.02857
17.67188,52.94286,-785.77143,-618.02857
17.67969,52.94286,-785.77143,-618.02857
17.68750,55.88571,-785.77143,-618.02857
17.69531,55.88571,-785.77143,-618.02857
17.70312,55.88571,-785.77143,-620.97143
17.71094,52.94286,-785.77143,-620.97143
17.71875,52.94286,-785.77143,-620.97143
17.72656,52.94286,-785.77143,-620.97143
17.73438,52.94286,-785.77143,-620.97143
17.74219,52.94286,-785.77143,-620.97143
17.75000,52.94286,-785.77143,-618.02857
17.75781,55.88571,-785.77143,-620.97143
17.76562,55.88571,-785.77143,-620.97143
17.77344,55.88571,-782.82857,-618.02857
17.78125,55.88571,-782.82857,-618.02857
17.78906,55.88571,-782.82857,-618.02857
17.79688,52.94286,-785.77143,-618.02857
17.80469,52.94286,-785.77143,-618.02857
17.81250,50.00000,-785.77143,-618.02857
17.82031,50.00000,-785.77143,-618.02857
17.82812,52.94286,-785.77143,-618.02857
17.83594,52.94286,-785.77143,-618.02857
17.84375,52.94286,-785.77143,-618.02857
17.85156,52.94286,-782.82857,-618.02857
17.85938,52.94286,-782.82857,-620.97143
17.86719,52.94286,-782.82857,-620.97143
17.87500,52.94286,-785.77143,-620.97143
17.88281,52.94286,-785.77143,-620.97143
17.89062,52.94286,-785.77143,-620.97143
17.89844,52.94286,-785.77143,-620.97143
17.90625,52.94286,-785.77143,-618.02857
17.91406,52.94286,-785.77143,-620.97143
17.92188,52.94286,-785.77143,-620.97143
17.92969,52.94286,-785.77143,-618.02857
17.93750,52.94286,-785.77143,-620.97143
17.94531,52.94286,-785.77143,-618.02857
17.95312,52.94286,-785.77143,-618.02857
17.96094,52.94286,-785.77143,-618.02857
17.96875,52.94286,-785.77143,-618.02857
17.97656,52.94286,-785.77143,-618.02857
17.98438,52.94286,-785.77143,-618.02857
17.99219,52.94286,-785.77143,-618.02857
18.00000,52.94286,-785.77143,-618.02857
18.00781,52.94286,-785.77143,-618.02857
18.01562,52.94286,-785.77143,-618.02857
18.02344,52.94286,-785.77143,-618.02857
18.03125,52.94286,-785.77143,-618.02857
18.03906,52.94286,-785.77143,-620.97143
18.04688,52.94286,-785.77143,-620.97143
18.05469,52.94286,-785.77143,-618.02857
18.06250,52.94286,-785.77143,-618.02857
18.07031,52.94286,-785.77143,-620.97143
18.07812,52.94286,-785.77143,-618.02857
18.08594,52.94286,-785.77143,-620.97143
18.09375,52.94286,-785.77143,-618.02857
18.10156,52.94286,-785.77143,-620.97143
18.10938,52.94286,-785.77143,-618.02857
18.11719,52.94286,-785.77143,-618.02857
18.12500,52.94286,-785.77143,-618.02857
18.13281,52.94286,-785.77143,-618.02857
18.14062,52.94286,-785.77143,-620.97143
18.14844,55.88571,-785.77143,-620.97143
18.15625,55.88571,-785.77143,-620.97143
18.16406,52.94286,-785.77143,-620.97143
18.17188,52.94286,-785.77143,-620.97143
18.17969,52.94286,-785.77143,-620.97143
18.18750,52.94286,-785.77143,-618.02857
18.19531,52.94286,-785.77143,-618.02857
18.20312,52.94286,-785.77143,-618.02857
18.21094,52.94286,-785.77143,-618.02857
18.21875,52.94286,-785.77143,-618.02857
18.22656,52.94286,-785.77143,-618.02857
18.23438,52.94286,-785.77143,-618.02857
18.24219,52.94286,-785.77143,-620.97143
18.25000,52.94286,-785.77143,-620.97143
18.25781,55.88571,-785.77143,-620.97143
18.26562,55.88571,-785.77143,-618.02857
18.27344,55.88571,-785.77143,-620.97143
18.28125,55.88571,-785.77143,-620.97143
18.28906,52.94286,-785.77143,-620.97143
18.29688,52.94286,-785.77143,-618.02857
18.30469,52.94286,-788.71429,-618.02857
18.31250,52.94286,-788.71429,-618.02857
18.32031,50.00000,-788.71429,-618.02857
18.32812,50.00000,-788.71429,-620.97143
18.33594,50.00000,-785.77143,-620.97143
18.34375,52.94286,-785.77143,-620.97143
18.35156,55.88571,-782.82857,-623.91429
18.35938,55.88571,-782.82857,-623.91429
18.36719,55.88571,-782.82857,-623.91429
18.37500,55.88571,-782.82857,-623.91429
18.38281,55.88571,-782.82857,-623.91429
18.39062,55.88571,-782.82857,-620.97143
18.39844,52.94286,-785.77143,-618.02857
18.40625,52.94286,-788.71429,-618.02857
18.41406,50.00000,-788.71429,-615.08571
18.42188,50.00000,-788.71429,-615.08571
18.42969,50.00000,-788.71429,-615.08571
18.43750,52.94286,-788.71429,-618.02857
18.44531,52.94286,-785.77143,-618.02857
18.45312,52.94286,-785.77143,-618.02857
18.46094,52.94286,-785.77143,-618.02857
18.46875,52.94286,-785.77143,-620.97143
18.47656,52.94286,-785.77143,-620.97143
18.48438,52.94286,-785.77143,-620.97143
18.49219,52.94286,-785.77143,-620.97143
18.50000,52.94286,-785.77143,-620.97143
18.50781,52.94286,-785.77143,-620.97143
18.51562,52.94286,-785.77143,-618.02857
18.52344,52.94286,-788.71429,-618.02857
18.53125,52.94286,-785.77143,-618.02857
18.53906,55.88571,-785.77143,-618.02857
18.54688,55.88571,-782.82857,-620.97143
18.55469,55.88571,-782.82857,-620.97143
18.56250,55.88571,-782.82857,-620.97143
18.57031,52.94286,-785.77143,-618.02857
18.57812,52.94286,-785.77143,-618.02857
18.58594,52.94286,-785.77143,-618.02857
18.59375,52.94286,-785.77143,-618.02857
18.60156,52.94286,-785.77143,-618.02857
18.60938,52.94286,-785.77143,-618.02857
18.61719,52.94286,-785.77143,-618.02857
18.62500,52.94286,-785.77143,-618.02857
18.63281,52.94286,-782.82857,-620.97143
18.64062,52.94286,-782.82857,-620.97143
18.64844,52.94286,-782.82857,-620.97143
18.65625,52.94286,-782.82857,-620.97143
18.66406,52.94286,-785.77143,-620.97143
18.67188,52.94286,-785.77143,-620.97143
18.67969,52.94286,-785.77143,-620.97143
18.68750,52.94286,-785.77143,-618.02857
18.69531,52.94286,-785.77143,-618.02857
18.70312,52.94286,-785.77143,-618.02857
18.71094,52.94286,-785.77143,-618.02857
18.71875,52.94286,-785.77143,-618.02857
18.72656,52.94286,-785.77143,-618.02857
18.73438,52.94286,-785.77143,-618.02857
18.74219,52.94286,-785.77143,-618.02857
18.75000,52.94286,-785.77143,-618.02857
18.75781,52.94286,-785.77143,-618.02857
18.76562,52.94286,-785.77143,-618.02857
18.77344,52.94286,-785.77143,-620.97143
18.78125,52.94286,-785.77143,-620.97143
18.78906,52.94286,-785.77143,-618.02857
18.79688,52.94286,-785.77143,-620.97143
18.80469,52.94286,-785.77143,-618.02857
18.81250,52.94286,-785.77143,-618.02857
18.82031,52.94286,-785.77143,-620.97143
18.82812,52.94286,-785.77143,-618.02857
18.83594,52.94286,-785.77143,-618.02857
18.84375,52.94286,-785.77143,-618.02857
18.85156,52.94286,-785.77143,-618.02857
18.85938,52.94286,-785.77143,-618.02857
18.86719,52.94286,-785.77143,-620.97143
18.87500,52.94286,-785.77143,-620.97143
18.88281,52.94286,-785.77143,-620.97143
18.89062,52.94286,-785.77143,-620.97143
18.89844,52.94286,-785.77143,-620.97143
18.90625,52.94286,-785.77143,-618.02857
18.91406,52.94286,-785.77143,-618.02857
18.92188,52.94286,-785.77143,-618.02857
18.92969,52.94286,-785.77143,-620.97143
18.93750,52.94286,-785.77143,-618.02857
18.94531,52.94286,-785.77143,-620.97143
18.95312,55.88571,-785.77143,-620.97143
18.96094,52.94286,-785.77143,-620.97143
18.96875,52.94286,-785.77143,-620.97143
18.97656,52.94286,-785.77143,-620.97143
18.98438,52.94286,-785.77143,-620.97143
18.99219,52.94286,-785.77143,-618.02857
19.00000,52.94286,-785.77143,-618.02857
19.00781,52.94286,-785.77143,-618.02857
19.01562,52.94286,-785.77143,-618.02857
19.02344,52.94286,-785.77143,-618.02857
19.03125,52.94286,-785.77143,-618.02857
19.03906,52.94286,-785.77143,-620.97143
19.04688,52.94286,-785.77143,-618.02857
19.05469,52.94286,-785.77143,-620.97143
19.06250,55.88571,-785.77143,-620.97143
19.07031,55.88571,-785.77143,-620.97143
19.07812,52.94286,-785.77143,-618.02857
19.08594,52.94286,-785.77143,-618.02857
19.09375,52.94286,-785.77143,-618.02857
19.10156,52.94286,-785.77143,-618.02857
19.10938,52.94286,-788.71429,-615.08571
19.11719,50.00000,-788.71429,-618.02857
19.12500,50.00000,-788.71429,-618.02857
19.13281,50.00000,-785.77143,-620.97143
19.14062,52.94286,-785.77143,-620.97143
19.14844,52.94286,-782.82857,-623.91429
19.15625,55.88571,-782.82857,-623.91429
19.16406,55.88571,-782.82857,-623.91429
19.17188,55.88571,-779.88571,-623.91429
19.17969,55.88571,-782.82857,-623.91429
19.18750,55.88571,-782.82857,-620.97143
19.19531,52.94286,-785.77143,-620.97143
19.20312,52.94286,-785.77143,-618.02857
19.21094,52.94286,-788.71429,-615.08571
19.21875,50.00000,-788.71429,-615.08571
19.22656,50.00000,-788.71429,-615.08571
19.23438,52.94286,-788.71429,-615.08571
19.24219,52.94286,-785.77143,-615.08571
19.25000,52.94286,-785.77143,-618.02857
19.25781,52.94286,-785.77143,-620.97143
19.26562,52.94286,-782.82857,-620.97143
19.27344,52.94286,-782.82857,-620.97143
19.28125,52.94286,-782.82857,-620.97143
19.28906,52.94286,-785.77143,-620.97143
19.29688,52.94286,-785.77143,-620.97143
19.30469,52.94286,-785.77143,-620.97143
19.31250,52.94286,-785.77143,-620.97143
19.32031,52.94286,-785.77143,-620.97143
19.32812,52.94286,-788.71429,-620.97143
19.33594,52.94286,-785.77143,-620.97143
19.34375,55.88571,-785.77143,-620.97143
19.35156,55.88571,-782.82857,-620.97143
19.35938,55.88571,-782.82857,-620.97143
19.36719,55.88571,-782.82857,-618.02857
19.37500,52.94286,-782.82857,-618.02857
19.38281,52.94286,-785.77143,-618.02857
19.39062,52.94286,-785.77143,-618.02857
19.39844,52.94286,-785.77143,-620.97143
19.40625,52.94286,-785.77143,-618.02857
19.41406,52.94286,-785.77143,-620.97143
19.42188,52.94286,-785.77143,-618.02857
19.42969,52.94286,-785.77143,-620.97143
19.43750,52.94286,-782.82857,-620.97143
19.44531,52.94286,-782.82857,-620.97143
19.45312,52.94286,-782.82857,-620.97143
19.46094,52.94286,-782.82857,-620.97143
19.46875,52.94286,-782.82857,-623.91429
19.47656,52.94286,-785.77143,-620.97143
19.48438,52.94286,-785.77143,-620.97143
19.49219,52.94286,-785.77143,-620.97143
19.50000,52.94286,-785.77143,-620.97143
19.50781,52.94286,-785.77143,-618.02857
19.51562,52.94286,-785.77143,-620.97143
19.52344,52.94286,-785.77143,-618.02857
19.53125,52.94286,-785.77143,-618.02857
19.53906,52.94286,-785.77143,-618.02857
19.54688,52.94286,-785.77143,-618.02857
19.55469,52.94286,-785.77143,-618.02857
19.56250,52.94286,-785.77143,-620.97143
19.57031,52.94286,-785.77143,-620.97143
19.57812,52.94286,-785.77143,-620.97143
19.58594,55.88571,-785.77143,-620.97143
19.59375,52.94286,-785.77143,-620.97143
19.60156,52.94286,-785.77143,-620.97143
19.60938,52.94286,-785.77143,-620.97143
19.61719,52.94286,-785.77143,-618.02857
19.62500,52.94286,-785.77143,-620.97143
19.63281,52.94286,-782.82857,-620.97143
19.64062,52.94286,-782.82857,-618.02857
19.64844,52.94286,-782.82857,-618.02857
19.65625,52.94286,-782.82857,-620.97143
19.66406,52.94286,-782.82857,-620.97143
19.67188,52.94286,-785.77143,-620.97143
19.67969,52.94286,-785.77143,-620.97143
19.68750,52.94286,-785.77143,-620.97143
19.69531,52.94286,-782.82857,-620.97143
19.70312,52.94286,-782.82857,-620.97143
19.71094,52.94286,-782.82857,-620.97143
19.71875,52.94286,-785.77143,-618.02857
19.72656,52.94286,-785.77143,-618.02857
19.73438,52.94286,-785.77143,-618.02857
19.74219,52.94286,-785.77143,-620.97143
19.75000,55.88571,-785.77143,-620.97143
19.75781,55.88571,-785.77143,-620.97143
19.76562,55.88571,-785.77143,-620.97143
19.77344,55.88571,-785.77143,-620.97143
19.78125,52.94286,-785.77143,-620.97143
19.78906,52.94286,-785.77143,-618.02857
19.79688,52.94286,-785.77143,-618.02857
19.80469,52.94286,-782.82857,-618.02857
19.81250,52.94286,-785.77143,-618.02857
19.82031,52.94286,-785.77143,-618.02857
19.82812,52.94286,-785.77143,-618.02857
19.83594,52.94286,-785.77143,-618.02857
19.84375,52.94286,-782.82857,-620.97143
19.85156,52.94286,-782.82857,-620.97143
19.85938,52.94286,-782.82857,-620.97143
19.86719,55.88571,-785.77143,-620.97143
19.87500,55.88571,-785.77143,-620.97143
19.88281,55.88571,-785.77143,-618.02857
19.89062,55.88571,-785.77143,-618.02857
19.89844,52.94286,-785.77143,-618.02857
19.90625,52.94286,-785.77143,-618.02857
19.91406,52.94286,-788.71429,-618.02857
19.92188,52.94286,-788.71429,-618.02857
19.92969,52.94286,-788.71429,-618.02857
19.93750,50.00000,-788.71429,-620.97143
19.94531,52.94286,-785.77143,-620.97143
19.95312,55.88571,-782.82857,-623.91429
19.96094,55.88571,-782.82857,-623.91429
19.96875,55.88571,-779.88571,-623.91429
19.97656,55.88571,-779.88571,-626.85714
19.98438,55.88571,-782.82857,-626.85714
19.99219,55.88571,-782.82857,-623.91429
20.00000,55.88571,-782.82857,-623.91429
20.00781,52.94286,-785.77143,-620.97143
20.01562,52.94286,-788.71429,-618.02857
20.02344,52.94286,-788.71429,-615.08571
20.03125,52.94286,-788.71429,-615.08571
20.03906,52.94286,-785.77143,-618.02857
20.04688,52.94286,-785.77143,-618.02857
20.05469,52.94286,-785.77143,-618.02857
20.06250,52.94286,-785.77143,-620.97143
20.07031,52.94286,-782.82857,-620.97143
20.07812,52.94286,-782.82857,-620.97143
20.08594,55.88571,-785.77143,-620.97143
20.09375,55.88571,-785.77143,-620.97143
20.10156,55.88571,-785.77143,-620.97143
20.10938,55.88571,-785.77143,-620.97143
20.11719,52.94286,-785.77143,-620.97143
20.12500,52.94286,-785.77143,-618.02857
20.13281,52.94286,-785.77143,-618.02857
20.14062,52.94286,-785.77143,-620.97143
20.14844,52.94286,-785.77143,-620.97143
20.15625,55.88571,-785.77143,-620.97143
20.16406,55.88571,-782.82857,-620.97143
20.17188,55.88571,-782.82857,-620.97143
20.17969,55.88571,-782.82857,-618.02857
20.18750,52.94286,-785.77143,-618.02857
20.19531,52.94286,-785.77143,-618.02857
20.20312,52.94286,-785.77143,-618.02857
20.21094,52.94286,-785.77143,-618.02857
20.21875,52.94286,-785.77143,-618.02857
20.22656,52.94286,-785.77143,-618.02857
20.23438,52.94286,-782.82857,-620.97143
20.24219,52.94286,-782.82857,-620.97143
20.25000,55.88571,-782.82857,-620.97143
20.25781,55.88571,-782.82857,-620.97143
20.26562,55.88571,-782.82857,-620.97143
20.27344,55.88571,-782.82857,-620.97143
20.28125,55.88571,-785.77143,-620.97143
20.28906,52.94286,-785.77143,-620.97143
20.29688,52.94286,-785.77143,-620.97143
20.30469,55.88571,-785.77143,-620.97143
20.31250,52.94286,-785.77143,-620.97143
20.32031,52.94286,-785.77143,-620.97143
20.32812,52.94286,-785.77143,-620.97143
20.33594,52.94286,-785.77143,-620.97143
20.34375,52.94286,-782.82857,-620.97143
20.35156,52.94286,-782.82857,-620.97143
20.35938,52.94286,-785.77143,-618.02857
20.36719,52.94286,-785.77143,-618.02857
20.37500,52.94286,-785.77143,-618.02857
20.38281,52.94286,-785.77143,-620.97143
20.39062,52.94286,-785.77143,-618.02857
20.39844,55.88571,-785.77143,-618.02857
20.40625,52.94286,-785.77143,-618.02857
20.41406,52.94286,-785.77143,-618.02857
20.42188,52.94286,-785.77143,-620.97143
20.42969,52.94286,-785.77143,-620.97143
20.43750,52.94286,-782.82857,-620.97143
20.44531,52.94286,-782.82857,-620.97143
20.45312,52.94286,-785.77143,-620.97143
20.46094,52.94286,-785.77143,-620.97143
20.46875,52.94286,-785.77143,-620.97143
20.47656,52.94286,-785.77143,-620.97143
20.48438,52.94286,-785.77143,-618.02857
20.49219,52.94286,-785.77143,-620.97143
20.50000,52.94286,-785.77143,-618.02857
20.50781,52.94286,-785.77143,-618.02857
20.51562,55.88571,-785.77143,-620.97143
20.52344,55.88571,-785.77143,-620.97143
20.53125,55.88571,-785.77143,-620.97143
20.53906,55.88571,-785.77143,-620.97143
20.54688,55.88571,-785.77143,-620.97143
20.55469,52.94286,-785.77143,-620.97143
20.56250,52.94286,-782.82857,-618.02857
20.57031,52.94286,-782.82857,-618.02857
20.57812,52.94286,-782.82857,-620.97143
20.58594,52.94286,-785.77143,-620.97143
20.59375,52.94286,-785.77143,-618.02857
20.60156,52.94286,-785.77143,-620.97143
20.60938,52.94286,-785.77143,-620.97143
20.61719,52.94286,-785.77143,-620.97143
20.62500,52.94286,-785.77143,-620.97143
20.63281,55.88571,-785.77143,-620.97143
20.64062,55.88571,-785.77143,-618.02857
20.64844,55.88571,-785.77143,-618.02857
20.65625,55.88571,-785.77143,-618.02857
20.66406,55.88571,-785.77143,-620.97143
20.67188,52.94286,-785.77143,-620.97143
20.67969,52.94286,-785.77143,-620.97143
20.68750,52.94286,-788.71429,-618.02857
20.69531,52.94286,-788.71429,-618.02857
20.70312,52.94286,-785.77143,-620.97143
20.71094,52.94286,-785.77143,-620.97143
20.71875,52.94286,-785.77143,-620.97143
20.72656,55.88571,-782.82857,-620.97143
20.73438,55.88571,-782.82857,-623.91429
20.74219,55.88571,-782.82857,-623.91429
20.75000,55.88571,-782.82857,-623.91429
20.75781,55.88571,-782.82857,-623.91429
20.76562,55.88571,-782.82857,-620.97143
20.77344,55.88571,-785.77143,-620.97143
20.78125,52.94286,-788.71429,-618.02857
20.78906,52.94286,-788.71429,-618.02857
20.79688,52.94286,-788.71429,-618.02857
20.80469,52.94286,-788.71429,-615.08571
20.81250,52.94286,-785.77143,-615.08571
20.82031,52.94286,-785.77143,-618.02857
20.82812,52.94286,-785.77143,-618.02857
20.83594,52.94286,-785.77143,-618.02857
20.84375,55.88571,-785.77143,-620.97143
20.85156,55.88571,-785.77143,-620.97143
20.85938,55.88571,-785.77143,-620.97143
20.86719,55.88571,-785.77143,-620.97143
20.87500,55.88571,-785.77143,-618.02857
20.88281,55.88571,-785.77143,-618.02857
20.89062,55.88571,-785.77143,-618.02857
20.89844,52.94286,-785.77143,-618.02857
20.90625,52.94286,-785.77143,-618.02857
20.91406,52.94286,-785.77143,-618.02857
20.92188,52.94286,-782.82857,-620.97143
20.92969,52.94286,-782.82857,-620.97143
20.93750,55.88571,-782.82857,-620.97143
20.94531,55.88571,-782.82857,-620.97143
20.95312,55.88571,-782.82857,-620.97143
20.96094,52.94286,-785.77143,-618.02857
20.96875,52.94286,-785.77143,-618.02857
20.97656,52.94286,-785.77143,-618.02857
20.98438,52.94286,-785.77143,-618.02857
20.99219,52.94286,-785.77143,-618.02857
21.00000,52.94286,-785.77143,-618.02857
21.00781,52.94286,-782.82857,-620.97143
21.01562,52.94286,-782.82857,-620.97143
21.02344,52.94286,-782.82857,-620.97143
21.03125,55.88571,-782.82857,-623.91429
21.03906,55.88571,-782.82857,-623.91429
21.04688,55.88571,-785.77143,-623.91429
21.05469,55.88571,-785.77143,-620.97143
21.06250,55.88571,-788.71429,-620.97143
21.07031,55.88571,-788.71429,-618.02857
21.07812,55.88571,-788.71429,-618.02857
21.08594,55.88571,-788.71429,-618.02857
21.09375,52.94286,-785.77143,-618.02857
21.10156,52.94286,-785.77143,-618.02857
21.10938,52.94286,-785.77143,-618.02857
21.11719,52.94286,-785.77143,-618.02857
21.12500,52.94286,-785.77143,-618.02857
21.13281,52.94286,-782.82857,-618.02857
21.14062,52.94286,-782.82857,-620.97143
21.14844,55.88571,-785.77143,-620.97143
21.15625,55.88571,-785.77143,-620.97143
21.16406,52.94286,-785.77143,-620.97143
21.17188,52.94286,-785.77143,-618.02857
21.17969,52.94286,-785.77143,-618.02857
21.18750,52.94286,-785.77143,-618.02857
21.19531,52.94286,-785.77143,-620.97143
21.20312,52.94286,-785.77143,-618.02857
21.21094,52.94286,-785.77143,-618.02857
21.21875,52.94286,-785.77143,-618.02857
21.22656,52.94286,-782.82857,-620.97143
21.23438,52.94286,-782.82857,-620.97143
21.24219,52.94286,-785.77143,-618.02857
21.25000,52.94286,-785.77143,-618.02857
21.25781,52.94286,-785.77143,-618.02857
21.26562,52.94286,-785.77143,-618.02857
21.27344,52.94286,-785.77143,-620.97143
21.28125,55.88571,-785.77143,-620.97143
21.28906,55.88571,-785.77143,-620.97143
21.29688,52.94286,-785.77143,-620.97143
21.30469,52.94286,-785.77143,-620.97143
21.31250,52.94286,-785.77143,-620.97143
21.32031,52.94286,-785.77143,-618.02857
21.32812,52.94286,-782.82857,-618.02857
21.33594,52.94286,-782.82857,-618.02857
21.34375,52.94286,-785.77143,-618.02857
21.35156,52.94286,-785.77143,-618.02857
21.35938,52.94286,-785.77143,-618.02857
21.36719,52.94286,-785.77143,-618.02857
21.37500,52.94286,-785.77143,-618.02857
21.38281,52.94286,-785.77143,-620.97143
21.39062,55.88571,-785.77143,-620.97143
21.39844,55.88571,-785.77143,-620.97143
21.40625,55.88571,-785.77143,-620.97143
21.41406,55.88571,-785.77143,-618.02857
21.42188,52.94286,-785.77143,-618.02857
21.42969,52.94286,-785.77143,-618.02857
21.43750,52.94286,-785.77143,-618.02857
21.44531,52.94286,-788.71429,-618.02857
21.45312,52.94286,-788.71429,-618.02857
21.46094,52.94286,-788.71429,-618.02857
21.46875,52.94286,-785.77143,-618.02857
21.47656,52.94286,-785.77143,-618.02857
21.48438,52.94286,-782.82857,-620.97143
21.49219,55.88571,-782.82857,-623.91429
21.50000,55.88571,-782.82857,-623.91429
21.50781,55.88571,-782.82857,-623.91429
21.51562,55.88571,-782.82857,-623.91429
21.52344,55.88571,-782.82857,-620.97143
21.53125,52.94286,-785.77143,-618.02857
21.53906,52.94286,-785.77143,-618.02857
21.54688,52.94286,-785.77143,-618.02857
21.55469,52.94286,-788.71429,-618.02857
21.56250,52.94286,-788.71429,-618.02857
21.57031,52.94286,-788.71429,-618.02857
21.57812,52.94286,-785.77143,-618.02857
21.58594,52.94286,-785.77143,-620.97143
21.59375,52.94286,-785.77143,-618.02857
21.60156,52.94286,-785.77143,-620.97143
21.60938,52.94286,-782.82857,-618.02857
21.61719,55.88571,-785.77143,-620.97143
21.62500,55.88571,-785.77143,-620.97143
21.63281,52.94286,-785.77143,-620.97143
21.64062,52.94286,-785.77143,-618.02857
21.64844,52.94286,-785.77143,-618.02857
21.65625,52.94286,-785.77143,-618.02857
21.66406,52.94286,-785.77143,-620.97143
21.67188,52.94286,-785.77143,-618.02857
21.67969,52.94286,-785.77143,-620.97143
21.68750,55.88571,-782.82857,-620.97143
21.69531,55.88571,-782.82857,-620.97143
21.70312,55.88571,-782.82857,-618.02857
21.71094,55.88571,-785.77143,-618.02857
21.71875,52.94286,-785.77143,-618.02857
21.72656,52.94286,-785.77143,-615.08571
21.73438,50.00000,-785.77143,-618.02857
21.74219,50.00000,-785.77143,-618.02857
21.75000,52.94286,-785.77143,-618.02857
21.75781,52.94286,-785.77143,-618.02857
21.76562,52.94286,-785.77143,-618.02857
21.77344,52.94286,-782.82857,-618.02857
21.78125,52.94286,-782.82857,-620.97143
21.78906,52.94286,-785.77143,-620.97143
21.79688,52.94286,-785.77143,-620.97143
21.80469,52.94286,-785.77143,-620.97143
21.81250,52.94286,-785.77143,-620.97143
21.82031,52.94286,-785.77143,-620.97143
21.82812,52.94286,-785.77143,-618.02857
21.83594,52.94286,-785.77143,-618.02857
21.84375,52.94286,-785.77143,-618.02857
21.85156,52.94286,-785.77143,-618.02857
21.85938,52.94286,-785.77143,-618.02857
21.86719,52.94286,-785.77143,-618.02857
21.87500,52.94286,-785.77143,-618.02857
21.88281,52.94286,-785.77143,-618.02857
21.89062,52.94286,-785.77143,-618.02857
21.89844,52.94286,-785.77143,-620.97143
21.90625,52.94286,-785.77143,-618.02857
21.91406,52.94286,-785.77143,-618.02857
21.92188,52.94286,-785.77143,-618.02857
21.92969,52.94286,-785.77143,-620.97143
21.93750,52.94286,-785.77143,-620.97143
21.94531,52.94286,-785.77143,-618.02857
21.95312,52.94286,-785.77143,-620.97143
21.96094,52.94286,-785.77143,-620.97143
21.96875,52.94286,-782.82857,-620.97143
21.97656,52.94286,-785.77143,-618.02857
21.98438,52.94286,-785.77143,-620.97143
21.99219,52.94286,-785.77143,-618.02857
22.00000,52.94286,-785.77143,-618.02857
22.00781,52.94286,-785.77143,-618.02857
22.01562,52.94286,-785.77143,-618.02857
22.02344,52.94286,-785.77143,-618.02857
22.03125,55.88571,-785.77143,-618.02857
22.03906,55.88571,-785.77143,-618.02857
22.04688,55.88571,-785.77143,-620.97143
22.05469,52.94286,-785.77143,-620.97143
22.06250,52.94286,-785.77143,-618.02857
22.07031,52.94286,-785.77143,-618.02857
22.07812,52.94286,-785.77143,-618.02857
22.08594,52.94286,-782.82857,-618.02857
22.09375,52.94286,-785.77143,-618.02857
22.10156,52.94286,-785.77143,-615.08571
22.10938,52.94286,-785.77143,-618.02857
22.11719,52.94286,-785.77143,-618.02857
22.12500,52.94286,-785.77143,-618.02857
22.13281,52.94286,-785.77143,-620.97143
22.14062,55.88571,-785.77143,-620.97143
22.14844,55.88571,-785.77143,-618.02857
22.15625,55.88571,-785.77143,-620.97143
22.16406,52.94286,-785.77143,-618.02857
22.17188,52.94286,-785.77143,-618.02857
22.17969,52.94286,-785.77143,-618.02857
22.18750,52.94286,-788.71429,-615.08571
22.19531,52.94286,-788.71429,-615.08571
22.20312,50.00000,-788.71429,-615.08571
22.21094,50.00000,-788.71429,-618.02857
22.21875,50.00000,-785.77143,-620.97143
22.22656,52.94286,-785.77143,-620.97143
22.23438,55.88571,-782.82857,-620.97143
22.24219,55.88571,-782.82857,-623.91429
22.25000,55.88571,-782.82857,-623.91429
22.25781,55.88571,-782.82857,-623.91429
22.26562,55.88571,-782.82857,-620.97143
22.27344,55.88571,-782.82857,-620.97143
22.28125,52.94286,-785.77143,-618.02857
22.28906,52.94286,-785.77143,-618.02857
22.29688,50.00000,-788.71429,-618.02857
22.30469,50.00000,-788.71429,-618.02857
22.31250,52.94286,-788.71429,-615.08571
22.32031,52.94286,-788.71429,-618.02857
22.32812,52.94286,-785.77143,-618.02857
22.33594,52.94286,-785.77143,-618.02857
22.34375,52.94286,-785.77143,-620.97143
22.35156,52.94286,-785.77143,-620.97143
22.35938,52.94286,-785.77143,-620.97143
22.36719,52.94286,-785.77143,-620.97143
22.37500,52.94286,-785.77143,-620.97143
22.38281,52.94286,-785.77143,-620.97143
22.39062,52.94286,-785.77143,-620.97143
22.39844,52.94286,-785.77143,-618.02857
22.40625,52.94286,-785.77143,-618.02857
22.41406,52.94286,-785.77143,-618.02857
22.42188,52.94286,-785.77143,-618.02857
22.42969,52.94286,-782.82857,-620.97143
22.43750,55.88571,-782.82857,-620.97143
22.44531,55.88571,-782.82857,-618.02857
22.45312,52.94286,-785.77143,-618.02857
22.46094,52.94286,-785.77143,-618.02857
22.46875,52.94286,-785.77143,-618.02857
22.47656,52.94286,-785.77143,-618.02857
22.48438,52.94286,-785.77143,-618.02857
22.49219,52.94286,-785.77143,-618.02857
22.50000,52.94286,-785.77143,-618.02857
22.50781,52.94286,-785.77143,-618.02857
22.51562,52.94286,-782.82857,-620.97143
22.52344,52.94286,-782.82857,-620.97143
22.53125,52.94286,-782.82857,-620.97143
22.53906,52.94286,-782.82857,-620.97143
22.54688,52.94286,-785.77143,-620.97143
22.55469,52.94286,-785.77143,-620.97143
22.56250,52.94286,-785.77143,-620.97143
22.57031,52.94286,-785.77143,-620.97143
22.57812,52.94286,-785.77143,-618.02857
22.58594,52.94286,-785.77143,-618.02857
22.59375,52.94286,-785.77143,-618.02857
22.60156,52.94286,-785.77143,-618.02857
22.60938,52.94286,-785.77143,-618.02857
22.61719,52.94286,-785.77143,-618.02857
22.62500,52.94286,-785.77143,-618.02857
22.63281,52.94286,-785.77143,-618.02857
22.64062,52.94286,-785.77143,-618.02857
22.64844,52.94286,-785.77143,-618.02857
22.65625,52.94286,-785.77143,-618.02857
22.66406,52.94286,-785.77143,-618.02857
22.67188,52.94286,-785.77143,-620.97143
22.67969,52.94286,-785.77143,-620.97143
22.68750,52.94286,-785.77143,-620.97143
22.69531,52.94286,-785.77143,-618.02857
22.70312,52.94286,-785.77143,-618.02857
22.71094,52.94286,-785.77143,-618.02857
22.71875,52.94286,-782.82857,-618.02857
22.72656,52.94286,-782.82857,-618.02857
22.73438,52.94286,-782.82857,-618.02857
22.74219,52.94286,-782.82857,-618.02857
22.75000,52.94286,-785.77143,-618.02857
22.75781,52.94286,-785.77143,-618.02857
22.76562,52.94286,-785.77143,-620.97143
22.77344,52.94286,-785.77143,-620.97143
22.78125,52.94286,-785.77143,-620.97143
22.78906,52.94286,-785.77143,-620.97143
22.79688,55.88571,-785.77143,-620.97143
22.80469,55.88571,-785.77143,-620.97143
22.81250,52.94286,-782.82857,-620.97143
22.82031,52.94286,-785.77143,-620.97143
22.82812,52.94286,-785.77143,-618.02857
22.83594,52.94286,-785.77143,-615.08571
22.84375,52.94286,-782.82857,-618.02857
22.85156,52.94286,-785.77143,-618.02857
22.85938,52.94286,-785.77143,-618.02857
22.86719,52.94286,-785.77143,-618.02857
22.87500,52.94286,-785.77143,-618.02857
22.88281,52.94286,-785.77143,-620.97143
22.89062,52.94286,-785.77143,-620.97143
22.89844,55.88571,-785.77143,-620.97143
22.90625,55.88571,-785.77143,-620.97143
22.91406,55.88571,-785.77143,-620.97143
22.92188,55.88571,-785.77143,-618.02857
22.92969,55.88571,-785.77143,-620.97143
22.93750,52.94286,-785.77143,-618.02857
22.94531,52.94286,-788.71429,-618.02857
22.95312,52.94286,-788.71429,-615.08571
22.96094,50.00000,-788.71429,-618.02857
22.96875,50.00000,-788.71429,-618.02857
22.97656,50.00000,-788.71429,-618.02857
22.98438,52.94286,-785.77143,-620.97143
22.99219,52.94286,-785.77143,-620.97143
23.00000,55.88571,-782.82857,-623.91429
23.00781,55.88571,-779.88571,-623.91429
23.01562,55.88571,-779.88571,-623.91429
23.02344,55.88571,-782.82857,-620.97143
23.03125,55.88571,-782.82857,-620.97143
23.03906,52.94286,-785.77143,-620.97143
23.04688,52.94286,-788.71429,-618.02857
23.05469,50.00000,-788.71429,-615.08571
23.06250,50.00000,-788.71429,-615.08571
23.07031,50.00000,-788.71429,-615.08571
23.07812,50.00000,-785.77143,-615.08571
23.08594,52.94286,-785.77143,-618.02857
23.09375,52.94286,-785.77143,-618.02857
23.10156,52.94286,-782.82857,-620.97143
23.10938,55.88571,-782.82857,-620.97143
23.11719,55.88571,-782.82857,-620.97143
23.12500,55.88571,-782.82857,-620.97143
23.13281,52.94286,-782.82857,-620.97143
23.14062,52.94286,-785.77143,-620.97143
23.14844,52.94286,-785.77143,-620.97143
23.15625,52.94286,-785.77143,-618.02857
23.16406,52.94286,-788.71429,-618.02857
23.17188,52.94286,-788.71429,-620.97143
23.17969,55.88571,-785.77143,-618.02857
23.18750,55.88571,-785.77143,-618.02857
23.19531,55.88571,-782.82857,-620.97143
23.20312,55.88571,-782.82857,-620.97143
23.21094,55.88571,-782.82857,-620.97143
23.21875,52.94286,-782.82857,-620.97143
23.22656,52.94286,-785.77143,-620.97143
23.23438,52.94286,-785.77143,-618.02857
23.24219,52.94286,-785.77143,-618.02857
23.25000,52.94286,-785.77143,-620.97143
23.25781,52.94286,-785.77143,-618.02857
23.26562,52.94286,-785.77143,-618.02857
23.27344,52.94286,-782.82857,-620.97143
23.28125,52.94286,-782.82857,-620.97143
23.28906,52.94286,-782.82857,-620.97143
23.29688,52.94286,-782.82857,-620.97143
23.30469,52.94286,-782.82857,-620.97143
23.31250,52.94286,-785.77143,-623.91429
23.32031,52.94286,-785.77143,-620.97143
23.32812,52.94286,-785.77143,-620.97143
23.33594,52.94286,-785.77143,-620.97143
23.34375,52.94286,-785.77143,-618.02857
23.35156,52.94286,-785.77143,-618.02857
23.35938,52.94286,-785.77143,-618.02857
23.36719,52.94286,-785.77143,-618.02857
23.37500,52.94286,-785.77143,-618.02857
23.38281,52.94286,-785.77143,-618.02857
23.39062,52.94286,-785.77143,-618.02857
23.39844,52.94286,-785.77143,-618.02857
23.40625,52.94286,-785.77143,-618.02857
23.41406,52.94286,-785.77143,-618.02857
23.42188,52.94286,-785.77143,-618.02857
23.42969,52.94286,-785.77143,-618.02857
23.43750,52.94286,-785.77143,-620.97143
23.44531,52.94286,-785.77143,-620.97143
23.45312,52.94286,-785.77143,-620.97143
23.46094,52.94286,-785.77143,-620.97143
23.46875,52.94286,-785.77143,-620.97143
23.47656,52.94286,-785.77143,-620.97143
23.48438,52.94286,-785.77143,-620.97143
23.49219,52.94286,-785.77143,-620.97143
23.50000,52.94286,-785.77143,-618.02857
23.50781,52.94286,-785.77143,-618.02857
23.51562,52.94286,-782.82857,-620.97143
23.52344,52.94286,-782.82857,-620.97143
23.53125,52.94286,-782.82857,-620.97143
23.53906,52.94286,-785.77143,-618.02857
23.54688,52.94286,-785.77143,-618.02857
23.55469,52.94286,-785.77143,-618.02857
23.56250,52.94286,-785.77143,-618.02857
23.57031,52.94286,-785.77143,-620.97143
23.57812,52.94286,-785.77143,-620.97143
23.58594,55.88571,-785.77143,-620.97143
23.59375,55.88571,-785.77143,-620.97143
23.60156,55.88571,-785.77143,-620.97143
23.60938,52.94286,-785.77143,-620.97143
23.61719,52.94286,-785.77143,-620.97143
23.62500,52.94286,-785.77143,-618.02857
23.63281,52.94286,-782.82857,-618.02857
23.64062,52.94286,-785.77143,-618.02857
23.64844,52.94286,-785.77143,-618.02857
23.65625,52.94286,-785.77143,-618.02857
23.66406,52.94286,-785.77143,-620.97143
23.67188,52.94286,-785.77143,-620.97143
